Welcome.started,Welcome.stopped,keyboard_space_welcome.keys,keyboard_space_welcome.rt,keyboard_space_welcome.duration,participant,gender,(corrected) normal vision,handedness,exp vse,session,skip_intro,date,expName,psychopyVersion,OS,frameRate,stimulus_exposure.started,stimulus_exposure.stopped,Block_intro.started,Block_intro.stopped,keyboard_space.keys,keyboard_space.rt,keyboard_space.duration,Stimulus.started,Stimulus.stopped,fixation_ending.started,fixation_ending.stopped,block_id,keyboard_response.keys,keyboard_response.corr,trials.thisRepN,trials.thisTrialN,trials.thisN,trials.thisIndex,trials.ran,target_presence,target_position,background_emotion,target_emotion,keyboard_response.rt,keyboard_response.duration,Block_outro.started,Block_outro.stopped,keyboard_space_end.keys,keyboard_space_end.rt,keyboard_space_end.duration,Question_about_stimulus.started,Question_about_stimulus.stopped,textbox_response.text,button.numClicks,button.timesOn,button.timesOff,Thanks.started,Thanks.stopped,keyboard_space_goodbye.keys,keyboard_space_goodbye.rt,keyboard_space_goodbye.duration
0.001,55.1096,space,55.0173,,049528,m,y,l,n,11,0,2025-04-05_11h30.12.362,VisualSearchFaces,2024.2.4,Win32,60.24096386,,,,,,,,,,,,,,,,,,,,,,,,,,,,,,,,,,,,,,,,,
,,,,,049528,m,y,l,n,11,0,2025-04-05_11h30.12.362,VisualSearchFaces,2024.2.4,Win32,60.24096386,76.2397,79.2435,79.2581,128.5405,space,49.2195,,129.5472,129.8027,129.803,131.7846,practice1,,0,0,0,0,15,1,1,centre,threatening,neutral,,,,,,,,,,,,,,,,,,
,,,,,049528,m,y,l,n,11,0,2025-04-05_11h30.12.362,VisualSearchFaces,2024.2.4,Win32,60.24096386,,,,,,,,132.8027,133.0591,133.0591,135.0587,practice1,j,1,0,1,1,18,1,1,bottom_left,threatening,neutral,0.637,,,,,,,,,,,,,,,,,
,,,,,049528,m,y,l,n,11,0,2025-04-05_11h30.12.362,VisualSearchFaces,2024.2.4,Win32,60.24096386,,,,,,,,136.0681,136.3312,136.3313,138.3159,practice1,j,1,0,2,2,7,1,1,top_right,neutral,threatening,0.3768,,,,,,,,,,,,,,,,,
,,,,,049528,m,y,l,n,11,0,2025-04-05_11h30.12.362,VisualSearchFaces,2024.2.4,Win32,60.24096386,,,,,,,,139.345,139.6063,139.6065,141.611,practice1,j,1,0,3,3,12,1,1,top_right,friendly,neutral,1.0201,,,,,,,,,,,,,,,,,
,,,,,049528,m,y,l,n,11,0,2025-04-05_11h30.12.362,VisualSearchFaces,2024.2.4,Win32,60.24096386,,,,,,,,142.607,142.8588,142.8591,144.8641,practice1,f,1,0,4,4,23,1,0,bottom_left,neutral,no_target,0.2305,,,,,,,,,,,,,,,,,
,,,,,049528,m,y,l,n,11,0,2025-04-05_11h30.12.362,VisualSearchFaces,2024.2.4,Win32,60.24096386,,,,,,,,145.8652,146.1108,146.111,148.0987,practice1,f,0,0,5,5,4,1,1,bottom_right,neutral,friendly,0.2394,,,,,,,,,,,,,,,,,
,,,,,049528,m,y,l,n,11,0,2025-04-05_11h30.12.362,VisualSearchFaces,2024.2.4,Win32,60.24096386,,,,,,,,149.1146,149.373,149.373,151.3663,practice1,j,0,0,6,6,31,1,0,top_left,friendly,no_target,0.5148,,,,,,,,,,,,,,,,,
,,,,,049528,m,y,l,n,11,0,2025-04-05_11h30.12.362,VisualSearchFaces,2024.2.4,Win32,60.24096386,,,,,,,,152.3841,152.646,152.646,154.6403,practice1,j,0,0,7,7,37,1,0,top_right,threatening,no_target,0.5746,,,,,,,,,,,,,,,,,
,,,,,049528,m,y,l,n,11,0,2025-04-05_11h30.12.362,VisualSearchFaces,2024.2.4,Win32,60.24096386,,,,,,,,155.652,155.9049,155.905,157.8949,practice1,j,1,0,8,8,6,1,1,top_left,neutral,threatening,0.6989,,,,,,,,,,,,,,,,,
,,,,,049528,m,y,l,n,11,0,2025-04-05_11h30.12.362,VisualSearchFaces,2024.2.4,Win32,60.24096386,,,,,,,,158.9102,159.1707,159.1709,161.1659,practice1,f,1,0,9,9,24,1,0,bottom_right,neutral,no_target,0.5766,,,,,,,,,,,,,,,,,
,,,,,049528,m,y,l,n,11,0,2025-04-05_11h30.12.362,VisualSearchFaces,2024.2.4,Win32,60.24096386,,,,,,,,162.1671,162.423,162.4232,164.4194,practice1,j,0,0,10,10,25,1,0,centre,neutral,no_target,1.1057,,,,,,,,,,,,,,,,,
,,,,,049528,m,y,l,n,11,0,2025-04-05_11h30.12.362,VisualSearchFaces,2024.2.4,Win32,60.24096386,,,,,,,,165.4192,165.6774,165.6774,167.6733,practice1,j,0,0,11,11,32,1,0,top_right,friendly,no_target,1.7016,,,,,,,,,,,,,,,,,
,,,,,049528,m,y,l,n,11,0,2025-04-05_11h30.12.362,VisualSearchFaces,2024.2.4,Win32,60.24096386,,,,,,,,168.6907,168.9502,168.9503,170.9281,practice1,j,1,0,12,12,10,1,1,centre,friendly,neutral,1.0705,,,,,,,,,,,,,,,,,
,,,,,049528,m,y,l,n,11,0,2025-04-05_11h30.12.362,VisualSearchFaces,2024.2.4,Win32,60.24096386,,,,,,,,171.948,172.209,172.2091,174.2017,practice1,f,1,0,13,13,26,1,0,top_left,neutral,no_target,0.8635,,,,,,,,,,,,,,,,,
,,,,,049528,m,y,l,n,11,0,2025-04-05_11h30.12.362,VisualSearchFaces,2024.2.4,Win32,60.24096386,,,,,,,,175.2161,175.473,175.4732,177.464,practice1,f,1,0,14,14,28,1,0,bottom_left,neutral,no_target,0.32,,,,,,,,,,,,,,,,,
,,,,,049528,m,y,l,n,11,0,2025-04-05_11h30.12.362,VisualSearchFaces,2024.2.4,Win32,60.24096386,,,,,,,,178.4784,178.7338,178.7339,180.7229,practice1,f,1,0,15,15,38,1,0,bottom_left,threatening,no_target,0.5988,,,,,,,,,,,,,,,,,
,,,,,049528,m,y,l,n,11,0,2025-04-05_11h30.12.362,VisualSearchFaces,2024.2.4,Win32,60.24096386,,,,,,,,181.7382,181.9824,181.9825,183.9821,practice1,j,1,0,16,16,11,1,1,top_left,friendly,neutral,0.5164,,,,,,,,,,,,,,,,,
,,,,,049528,m,y,l,n,11,0,2025-04-05_11h30.12.362,VisualSearchFaces,2024.2.4,Win32,60.24096386,,,,,,,,184.996,185.2474,185.2474,187.241,practice1,j,1,0,17,17,5,1,1,centre,neutral,threatening,0.6031,,,,,,,,,,,,,,,,,
,,,,,049528,m,y,l,n,11,0,2025-04-05_11h30.12.362,VisualSearchFaces,2024.2.4,Win32,60.24096386,,,,,,,,188.2526,188.5008,188.5008,190.5058,practice1,j,1,0,18,18,16,1,1,top_left,threatening,neutral,0.4697,,,,,,,,,,,,,,,,,
,,,,,049528,m,y,l,n,11,0,2025-04-05_11h30.12.362,VisualSearchFaces,2024.2.4,Win32,60.24096386,,,,,,,,191.4959,191.7444,191.7445,193.7493,practice1,f,1,0,19,19,27,1,0,top_right,neutral,no_target,0.7282,,,,,,,,,,,,,,,,,
,,,,,049528,m,y,l,n,11,0,2025-04-05_11h30.12.362,VisualSearchFaces,2024.2.4,Win32,60.24096386,,,,,,,,194.7467,195.003,195.0031,197.0044,practice1,f,1,0,20,20,21,1,0,top_left,neutral,no_target,0.6275,,,,,,,,,,,,,,,,,
,,,,,049528,m,y,l,n,11,0,2025-04-05_11h30.12.362,VisualSearchFaces,2024.2.4,Win32,60.24096386,,,,,,,,198.0126,198.259,198.2591,200.2548,practice1,f,1,0,21,21,36,1,0,top_left,threatening,no_target,0.5549,,,,,,,,,,,,,,,,,
,,,,,049528,m,y,l,n,11,0,2025-04-05_11h30.12.362,VisualSearchFaces,2024.2.4,Win32,60.24096386,,,,,,,,201.2625,201.5075,201.5076,203.5049,practice1,j,1,0,22,22,13,1,1,bottom_left,friendly,neutral,0.9445,,,,,,,,,,,,,,,,,
,,,,,049528,m,y,l,n,11,0,2025-04-05_11h30.12.362,VisualSearchFaces,2024.2.4,Win32,60.24096386,,,,,,,,204.5207,204.7738,204.7739,206.7683,practice1,f,0,0,23,23,3,1,1,bottom_left,neutral,friendly,0.616,,,,,,,,,,,,,,,,,
,,,,,049528,m,y,l,n,11,0,2025-04-05_11h30.12.362,VisualSearchFaces,2024.2.4,Win32,60.24096386,,,,,,,,207.7777,208.0399,208.04,210.0223,practice1,f,1,0,24,24,22,1,0,top_right,neutral,no_target,0.4258,,,,,,,,,,,,,,,,,
,,,,,049528,m,y,l,n,11,0,2025-04-05_11h30.12.362,VisualSearchFaces,2024.2.4,Win32,60.24096386,,,,,,,,211.0393,211.2896,211.2897,213.2782,practice1,f,1,0,25,25,34,1,0,bottom_right,friendly,no_target,1.8515,,,,,,,,,,,,,,,,,
,,,,,049528,m,y,l,n,11,0,2025-04-05_11h30.12.362,VisualSearchFaces,2024.2.4,Win32,60.24096386,,,,,,,,214.2877,214.532,214.532,216.5381,practice1,f,1,0,26,26,39,1,0,bottom_right,threatening,no_target,1.2835,,,,,,,,,,,,,,,,,
,,,,,049528,m,y,l,n,11,0,2025-04-05_11h30.12.362,VisualSearchFaces,2024.2.4,Win32,60.24096386,,,,,,,,217.5299,217.781,217.7811,219.7739,practice1,j,1,0,27,27,2,1,1,top_right,neutral,friendly,0.9581,,,,,,,,,,,,,,,,,
,,,,,049528,m,y,l,n,11,0,2025-04-05_11h30.12.362,VisualSearchFaces,2024.2.4,Win32,60.24096386,,,,,,,,220.7819,221.0452,221.0453,223.0214,practice1,f,1,0,28,28,29,1,0,bottom_right,neutral,no_target,0.6434,,,,,,,,,,,,,,,,,
,,,,,049528,m,y,l,n,11,0,2025-04-05_11h30.12.362,VisualSearchFaces,2024.2.4,Win32,60.24096386,,,,,,,,224.0575,224.3166,224.3167,226.3183,practice1,j,1,0,29,29,8,1,1,bottom_left,neutral,threatening,1.6319,,,,,,,,,,,,,,,,,
,,,,,049528,m,y,l,n,11,0,2025-04-05_11h30.12.362,VisualSearchFaces,2024.2.4,Win32,60.24096386,,,,,,,,227.3204,227.5731,227.5731,229.5608,practice1,j,1,0,30,30,17,1,1,top_right,threatening,neutral,0.6163,,,,,,,,,,,,,,,,,
,,,,,049528,m,y,l,n,11,0,2025-04-05_11h30.12.362,VisualSearchFaces,2024.2.4,Win32,60.24096386,,,,,,,,230.5723,230.8339,230.834,232.8405,practice1,,0,0,31,31,30,1,0,centre,friendly,no_target,,,,,,,,,,,,,,,,,,
,,,,,049528,m,y,l,n,11,0,2025-04-05_11h30.12.362,VisualSearchFaces,2024.2.4,Win32,60.24096386,,,,,,,,233.835,234.0804,234.0804,236.0831,practice1,,0,0,32,32,33,1,0,bottom_left,friendly,no_target,,,,,,,,,,,,,,,,,,
,,,,,049528,m,y,l,n,11,0,2025-04-05_11h30.12.362,VisualSearchFaces,2024.2.4,Win32,60.24096386,,,,,,,,237.0847,237.3408,237.3408,239.3291,practice1,j,1,0,33,33,14,1,1,bottom_right,friendly,neutral,0.9279,,,,,,,,,,,,,,,,,
,,,,,049528,m,y,l,n,11,0,2025-04-05_11h30.12.362,VisualSearchFaces,2024.2.4,Win32,60.24096386,,,,,,,,240.3398,240.6038,240.6039,242.6157,practice1,f,0,0,34,34,1,1,1,top_left,neutral,friendly,0.8272,,,,,,,,,,,,,,,,,
,,,,,049528,m,y,l,n,11,0,2025-04-05_11h30.12.362,VisualSearchFaces,2024.2.4,Win32,60.24096386,,,,,,,,243.6088,243.8757,243.8759,245.8701,practice1,f,1,0,35,35,20,1,0,centre,neutral,no_target,0.6075,,,,,,,,,,,,,,,,,
,,,,,049528,m,y,l,n,11,0,2025-04-05_11h30.12.362,VisualSearchFaces,2024.2.4,Win32,60.24096386,,,,,,,,246.8855,247.156,247.1562,249.154,practice1,j,1,0,36,36,19,1,1,bottom_right,threatening,neutral,0.6484,,,,,,,,,,,,,,,,,
,,,,,049528,m,y,l,n,11,0,2025-04-05_11h30.12.362,VisualSearchFaces,2024.2.4,Win32,60.24096386,,,,,,,,250.1599,250.4242,250.4244,252.4344,practice1,f,1,0,37,37,35,1,0,centre,threatening,no_target,1.2167,,,,,,,,,,,,,,,,,
,,,,,049528,m,y,l,n,11,0,2025-04-05_11h30.12.362,VisualSearchFaces,2024.2.4,Win32,60.24096386,,,,,,,,253.4243,253.6741,253.6742,255.6599,practice1,f,0,0,38,38,9,1,1,bottom_right,neutral,threatening,0.7313,,,,,,,,,,,,,,,,,
,,,,,049528,m,y,l,n,11,0,2025-04-05_11h30.12.362,VisualSearchFaces,2024.2.4,Win32,60.24096386,,,,,,,,256.663,256.9185,256.9186,258.924,practice1,f,0,0,39,39,0,1,1,centre,neutral,friendly,0.8531,,,,,,,,,,,,,,,,,
,,,,,049528,m,y,l,n,11,0,2025-04-05_11h30.12.362,VisualSearchFaces,2024.2.4,Win32,60.24096386,,,272.7534,278.3971,space,5.5728,,279.404,279.5289,279.5289,281.5203,practice2,j,1,0,0,0,15,1,1,centre,threatening,neutral,1.1545,,258.9257,272.7464,space,13.7645,,,,,,,,,,,,
,,,,,049528,m,y,l,n,11,0,2025-04-05_11h30.12.362,VisualSearchFaces,2024.2.4,Win32,60.24096386,,,,,,,,282.5269,282.623,282.6232,284.6185,practice2,f,0,0,1,1,19,1,1,bottom_right,threatening,neutral,1.0258,,,,,,,,,,,,,,,,,
,,,,,049528,m,y,l,n,11,0,2025-04-05_11h30.12.362,VisualSearchFaces,2024.2.4,Win32,60.24096386,,,,,,,,285.6357,285.7478,285.7479,287.7357,practice2,j,1,0,2,2,18,1,1,bottom_left,threatening,neutral,0.6749,,,,,,,,,,,,,,,,,
,,,,,049528,m,y,l,n,11,0,2025-04-05_11h30.12.362,VisualSearchFaces,2024.2.4,Win32,60.24096386,,,,,,,,288.7479,288.8645,288.8646,290.8724,practice2,j,1,0,3,3,1,1,1,top_left,neutral,friendly,0.6625,,,,,,,,,,,,,,,,,
,,,,,049528,m,y,l,n,11,0,2025-04-05_11h30.12.362,VisualSearchFaces,2024.2.4,Win32,60.24096386,,,,,,,,291.8707,291.9667,291.9669,293.9735,practice2,j,0,0,4,4,38,1,0,bottom_left,threatening,no_target,0.7721,,,,,,,,,,,,,,,,,
,,,,,049528,m,y,l,n,11,0,2025-04-05_11h30.12.362,VisualSearchFaces,2024.2.4,Win32,60.24096386,,,,,,,,294.9669,295.0793,295.0793,297.0708,practice2,j,1,0,5,5,11,1,1,top_left,friendly,neutral,1.0668,,,,,,,,,,,,,,,,,
,,,,,049528,m,y,l,n,11,0,2025-04-05_11h30.12.362,VisualSearchFaces,2024.2.4,Win32,60.24096386,,,,,,,,298.0785,298.174,298.1741,300.1706,practice2,f,1,0,6,6,34,1,0,bottom_right,friendly,no_target,0.8746,,,,,,,,,,,,,,,,,
,,,,,049528,m,y,l,n,11,0,2025-04-05_11h30.12.362,VisualSearchFaces,2024.2.4,Win32,60.24096386,,,,,,,,301.1769,301.2849,301.2849,303.2795,practice2,j,0,0,7,7,37,1,0,top_right,threatening,no_target,0.7937,,,,,,,,,,,,,,,,,
,,,,,049528,m,y,l,n,11,0,2025-04-05_11h30.12.362,VisualSearchFaces,2024.2.4,Win32,60.24096386,,,,,,,,304.2833,304.3921,304.3922,306.3949,practice2,j,1,0,8,8,8,1,1,bottom_left,neutral,threatening,0.8562,,,,,,,,,,,,,,,,,
,,,,,049528,m,y,l,n,11,0,2025-04-05_11h30.12.362,VisualSearchFaces,2024.2.4,Win32,60.24096386,,,,,,,,307.3879,307.49,307.4901,309.492,practice2,f,1,0,9,9,27,1,0,top_right,neutral,no_target,0.7361,,,,,,,,,,,,,,,,,
,,,,,049528,m,y,l,n,11,0,2025-04-05_11h30.12.362,VisualSearchFaces,2024.2.4,Win32,60.24096386,,,,,,,,310.492,310.5867,310.5868,312.5817,practice2,j,0,0,10,10,36,1,0,top_left,threatening,no_target,0.8583,,,,,,,,,,,,,,,,,
,,,,,049528,m,y,l,n,11,0,2025-04-05_11h30.12.362,VisualSearchFaces,2024.2.4,Win32,60.24096386,,,,,,,,313.5856,313.6996,313.6997,315.7021,practice2,j,1,0,11,11,17,1,1,top_right,threatening,neutral,1.1825,,,,,,,,,,,,,,,,,
,,,,,049528,m,y,l,n,11,0,2025-04-05_11h30.12.362,VisualSearchFaces,2024.2.4,Win32,60.24096386,,,,,,,,316.7027,316.8128,316.8129,318.8045,practice2,f,1,0,12,12,35,1,0,centre,threatening,no_target,0.8662,,,,,,,,,,,,,,,,,
,,,,,049528,m,y,l,n,11,0,2025-04-05_11h30.12.362,VisualSearchFaces,2024.2.4,Win32,60.24096386,,,,,,,,319.8234,319.9281,319.9283,321.9321,practice2,f,1,0,13,13,23,1,0,bottom_left,neutral,no_target,1.0079,,,,,,,,,,,,,,,,,
,,,,,049528,m,y,l,n,11,0,2025-04-05_11h30.12.362,VisualSearchFaces,2024.2.4,Win32,60.24096386,,,,,,,,322.9297,323.0557,323.0559,325.0437,practice2,f,1,0,14,14,30,1,0,centre,friendly,no_target,0.7252,,,,,,,,,,,,,,,,,
,,,,,049528,m,y,l,n,11,0,2025-04-05_11h30.12.362,VisualSearchFaces,2024.2.4,Win32,60.24096386,,,,,,,,326.0624,326.1772,326.1772,328.1798,practice2,f,1,0,15,15,24,1,0,bottom_right,neutral,no_target,0.6705,,,,,,,,,,,,,,,,,
,,,,,049528,m,y,l,n,11,0,2025-04-05_11h30.12.362,VisualSearchFaces,2024.2.4,Win32,60.24096386,,,,,,,,329.1755,329.273,329.2731,331.2636,practice2,f,1,0,16,16,29,1,0,bottom_right,neutral,no_target,0.7356,,,,,,,,,,,,,,,,,
,,,,,049528,m,y,l,n,11,0,2025-04-05_11h30.12.362,VisualSearchFaces,2024.2.4,Win32,60.24096386,,,,,,,,332.277,332.3738,332.3739,334.3735,practice2,f,0,0,17,17,13,1,1,bottom_left,friendly,neutral,0.8931,,,,,,,,,,,,,,,,,
,,,,,049528,m,y,l,n,11,0,2025-04-05_11h30.12.362,VisualSearchFaces,2024.2.4,Win32,60.24096386,,,,,,,,335.3791,335.503,335.5031,337.506,practice2,f,1,0,18,18,20,1,0,centre,neutral,no_target,0.4885,,,,,,,,,,,,,,,,,
,,,,,049528,m,y,l,n,11,0,2025-04-05_11h30.12.362,VisualSearchFaces,2024.2.4,Win32,60.24096386,,,,,,,,338.5142,338.6275,338.6276,340.626,practice2,f,0,0,19,19,9,1,1,bottom_right,neutral,threatening,0.5375,,,,,,,,,,,,,,,,,
,,,,,049528,m,y,l,n,11,0,2025-04-05_11h30.12.362,VisualSearchFaces,2024.2.4,Win32,60.24096386,,,,,,,,341.6282,341.7338,341.7338,343.732,practice2,f,1,0,20,20,21,1,0,top_left,neutral,no_target,0.5043,,,,,,,,,,,,,,,,,
,,,,,049528,m,y,l,n,11,0,2025-04-05_11h30.12.362,VisualSearchFaces,2024.2.4,Win32,60.24096386,,,,,,,,344.7374,344.8398,344.8398,346.8372,practice2,f,0,0,21,21,14,1,1,bottom_right,friendly,neutral,0.6342,,,,,,,,,,,,,,,,,
,,,,,049528,m,y,l,n,11,0,2025-04-05_11h30.12.362,VisualSearchFaces,2024.2.4,Win32,60.24096386,,,,,,,,347.8327,347.9405,347.9406,349.9372,practice2,f,0,0,22,22,2,1,1,top_right,neutral,friendly,0.4618,,,,,,,,,,,,,,,,,
,,,,,049528,m,y,l,n,11,0,2025-04-05_11h30.12.362,VisualSearchFaces,2024.2.4,Win32,60.24096386,,,,,,,,350.935,351.0346,351.0348,353.0328,practice2,f,0,0,23,23,3,1,1,bottom_left,neutral,friendly,0.5437,,,,,,,,,,,,,,,,,
,,,,,049528,m,y,l,n,11,0,2025-04-05_11h30.12.362,VisualSearchFaces,2024.2.4,Win32,60.24096386,,,,,,,,354.0392,354.1463,354.1463,356.152,practice2,j,1,0,24,24,4,1,1,bottom_right,neutral,friendly,0.8258,,,,,,,,,,,,,,,,,
,,,,,049528,m,y,l,n,11,0,2025-04-05_11h30.12.362,VisualSearchFaces,2024.2.4,Win32,60.24096386,,,,,,,,357.145,357.2647,357.2648,359.2631,practice2,j,1,0,25,25,12,1,1,top_right,friendly,neutral,0.658,,,,,,,,,,,,,,,,,
,,,,,049528,m,y,l,n,11,0,2025-04-05_11h30.12.362,VisualSearchFaces,2024.2.4,Win32,60.24096386,,,,,,,,360.2404,360.3514,360.3514,362.3574,practice2,f,1,0,26,26,32,1,0,top_right,friendly,no_target,0.4427,,,,,,,,,,,,,,,,,
,,,,,049528,m,y,l,n,11,0,2025-04-05_11h30.12.362,VisualSearchFaces,2024.2.4,Win32,60.24096386,,,,,,,,363.3473,363.458,363.458,365.4627,practice2,j,1,0,27,27,5,1,1,centre,neutral,threatening,0.8221,,,,,,,,,,,,,,,,,
,,,,,049528,m,y,l,n,11,0,2025-04-05_11h30.12.362,VisualSearchFaces,2024.2.4,Win32,60.24096386,,,,,,,,366.4566,366.5728,366.5728,368.5548,practice2,f,1,0,28,28,33,1,0,bottom_left,friendly,no_target,1.23,,,,,,,,,,,,,,,,,
,,,,,049528,m,y,l,n,11,0,2025-04-05_11h30.12.362,VisualSearchFaces,2024.2.4,Win32,60.24096386,,,,,,,,369.5711,369.6783,369.6784,371.6761,practice2,f,1,0,29,29,26,1,0,top_left,neutral,no_target,0.5654,,,,,,,,,,,,,,,,,
,,,,,049528,m,y,l,n,11,0,2025-04-05_11h30.12.362,VisualSearchFaces,2024.2.4,Win32,60.24096386,,,,,,,,372.6811,372.7903,372.7905,374.7847,practice2,f,1,0,30,30,31,1,0,top_left,friendly,no_target,0.5632,,,,,,,,,,,,,,,,,
,,,,,049528,m,y,l,n,11,0,2025-04-05_11h30.12.362,VisualSearchFaces,2024.2.4,Win32,60.24096386,,,,,,,,375.7933,375.8911,375.8912,377.8967,practice2,f,1,0,31,31,25,1,0,centre,neutral,no_target,0.5703,,,,,,,,,,,,,,,,,
,,,,,049528,m,y,l,n,11,0,2025-04-05_11h30.12.362,VisualSearchFaces,2024.2.4,Win32,60.24096386,,,,,,,,378.8753,378.9813,378.9814,380.9749,practice2,j,1,0,32,32,0,1,1,centre,neutral,friendly,0.7326,,,,,,,,,,,,,,,,,
,,,,,049528,m,y,l,n,11,0,2025-04-05_11h30.12.362,VisualSearchFaces,2024.2.4,Win32,60.24096386,,,,,,,,381.9903,382.1023,382.1023,384.0982,practice2,f,0,0,33,33,16,1,1,top_left,threatening,neutral,0.7578,,,,,,,,,,,,,,,,,
,,,,,049528,m,y,l,n,11,0,2025-04-05_11h30.12.362,VisualSearchFaces,2024.2.4,Win32,60.24096386,,,,,,,,385.1031,385.2091,385.2091,387.1979,practice2,f,1,0,34,34,39,1,0,bottom_right,threatening,no_target,0.7614,,,,,,,,,,,,,,,,,
,,,,,049528,m,y,l,n,11,0,2025-04-05_11h30.12.362,VisualSearchFaces,2024.2.4,Win32,60.24096386,,,,,,,,388.2107,388.3207,388.3209,390.3149,practice2,j,1,0,35,35,7,1,1,top_right,neutral,threatening,0.9656,,,,,,,,,,,,,,,,,
,,,,,049528,m,y,l,n,11,0,2025-04-05_11h30.12.362,VisualSearchFaces,2024.2.4,Win32,60.24096386,,,,,,,,391.3074,391.4174,391.4175,393.3998,practice2,f,1,0,36,36,22,1,0,top_right,neutral,no_target,0.644,,,,,,,,,,,,,,,,,
,,,,,049528,m,y,l,n,11,0,2025-04-05_11h30.12.362,VisualSearchFaces,2024.2.4,Win32,60.24096386,,,,,,,,394.4267,394.5356,394.5356,396.5163,practice2,f,0,0,37,37,6,1,1,top_left,neutral,threatening,0.4741,,,,,,,,,,,,,,,,,
,,,,,049528,m,y,l,n,11,0,2025-04-05_11h30.12.362,VisualSearchFaces,2024.2.4,Win32,60.24096386,,,,,,,,397.5216,397.627,397.6271,399.6181,practice2,f,1,0,38,38,28,1,0,bottom_left,neutral,no_target,0.6083,,,,,,,,,,,,,,,,,
,,,,,049528,m,y,l,n,11,0,2025-04-05_11h30.12.362,VisualSearchFaces,2024.2.4,Win32,60.24096386,,,,,,,,400.6407,400.7712,400.7712,402.7709,practice2,j,1,0,39,39,10,1,1,centre,friendly,neutral,0.776,,,,,,,,,,,,,,,,,
,,,,,049528,m,y,l,n,11,0,2025-04-05_11h30.12.362,VisualSearchFaces,2024.2.4,Win32,60.24096386,,,405.8025,432.7047,space,26.8222,,433.7119,433.8215,433.8216,435.8276,block1,j,0,0,0,0,26,1,0,top_left,neutral,no_target,0.8991,,402.7759,405.7945,space,2.9761,,,,,,,,,,,,
,,,,,049528,m,y,l,n,11,0,2025-04-05_11h30.12.362,VisualSearchFaces,2024.2.4,Win32,60.24096386,,,,,,,,436.8248,436.94,436.9402,438.9358,block1,j,1,0,1,1,18,1,1,bottom_left,threatening,neutral,0.9214,,,,,,,,,,,,,,,,,
,,,,,049528,m,y,l,n,11,0,2025-04-05_11h30.12.362,VisualSearchFaces,2024.2.4,Win32,60.24096386,,,,,,,,439.9332,440.0472,440.0472,442.0436,block1,f,1,0,2,2,28,1,0,bottom_left,neutral,no_target,0.731,,,,,,,,,,,,,,,,,
,,,,,049528,m,y,l,n,11,0,2025-04-05_11h30.12.362,VisualSearchFaces,2024.2.4,Win32,60.24096386,,,,,,,,443.0434,443.1445,443.1445,445.1381,block1,j,1,0,3,3,19,1,1,bottom_right,threatening,neutral,0.8842,,,,,,,,,,,,,,,,,
,,,,,049528,m,y,l,n,11,0,2025-04-05_11h30.12.362,VisualSearchFaces,2024.2.4,Win32,60.24096386,,,,,,,,446.143,446.2579,446.258,448.2571,block1,j,1,0,4,4,8,1,1,bottom_left,neutral,threatening,0.7274,,,,,,,,,,,,,,,,,
,,,,,049528,m,y,l,n,11,0,2025-04-05_11h30.12.362,VisualSearchFaces,2024.2.4,Win32,60.24096386,,,,,,,,449.2518,449.3564,449.3565,451.361,block1,j,0,0,5,5,37,1,0,top_right,threatening,no_target,0.7132,,,,,,,,,,,,,,,,,
,,,,,049528,m,y,l,n,11,0,2025-04-05_11h30.12.362,VisualSearchFaces,2024.2.4,Win32,60.24096386,,,,,,,,452.3517,452.4569,452.4571,454.4467,block1,f,0,0,6,6,15,1,1,centre,threatening,neutral,0.8028,,,,,,,,,,,,,,,,,
,,,,,049528,m,y,l,n,11,0,2025-04-05_11h30.12.362,VisualSearchFaces,2024.2.4,Win32,60.24096386,,,,,,,,455.4581,455.5568,455.557,457.556,block1,f,1,0,7,7,36,1,0,top_left,threatening,no_target,0.7298,,,,,,,,,,,,,,,,,
,,,,,049528,m,y,l,n,11,0,2025-04-05_11h30.12.362,VisualSearchFaces,2024.2.4,Win32,60.24096386,,,,,,,,458.5516,458.6634,458.6635,460.6686,block1,j,1,0,8,8,11,1,1,top_left,friendly,neutral,0.7078,,,,,,,,,,,,,,,,,
,,,,,049528,m,y,l,n,11,0,2025-04-05_11h30.12.362,VisualSearchFaces,2024.2.4,Win32,60.24096386,,,,,,,,461.659,461.7709,461.7709,463.7637,block1,f,0,0,9,9,2,1,1,top_right,neutral,friendly,0.6852,,,,,,,,,,,,,,,,,
,,,,,049528,m,y,l,n,11,0,2025-04-05_11h30.12.362,VisualSearchFaces,2024.2.4,Win32,60.24096386,,,,,,,,464.7653,464.8624,464.8625,466.8569,block1,j,1,0,10,10,1,1,1,top_left,neutral,friendly,0.509,,,,,,,,,,,,,,,,,
,,,,,049528,m,y,l,n,11,0,2025-04-05_11h30.12.362,VisualSearchFaces,2024.2.4,Win32,60.24096386,,,,,,,,467.8607,467.9627,467.9628,469.957,block1,j,1,0,11,11,4,1,1,bottom_right,neutral,friendly,0.7635,,,,,,,,,,,,,,,,,
,,,,,049528,m,y,l,n,11,0,2025-04-05_11h30.12.362,VisualSearchFaces,2024.2.4,Win32,60.24096386,,,,,,,,470.9604,471.0654,471.0655,473.0539,block1,j,1,0,12,12,5,1,1,centre,neutral,threatening,0.7059,,,,,,,,,,,,,,,,,
,,,,,049528,m,y,l,n,11,0,2025-04-05_11h30.12.362,VisualSearchFaces,2024.2.4,Win32,60.24096386,,,,,,,,474.0636,474.1796,474.1797,476.1815,block1,f,1,0,13,13,30,1,0,centre,friendly,no_target,0.67,,,,,,,,,,,,,,,,,
,,,,,049528,m,y,l,n,11,0,2025-04-05_11h30.12.362,VisualSearchFaces,2024.2.4,Win32,60.24096386,,,,,,,,477.1756,477.2868,477.2869,479.2862,block1,j,1,0,14,14,16,1,1,top_left,threatening,neutral,1.5267,,,,,,,,,,,,,,,,,
,,,,,049528,m,y,l,n,11,0,2025-04-05_11h30.12.362,VisualSearchFaces,2024.2.4,Win32,60.24096386,,,,,,,,480.2899,480.4011,480.4012,482.4055,block1,,0,0,15,15,9,1,1,bottom_right,neutral,threatening,,,,,,,,,,,,,,,,,,
,,,,,049528,m,y,l,n,11,0,2025-04-05_11h30.12.362,VisualSearchFaces,2024.2.4,Win32,60.24096386,,,,,,,,483.4249,483.5272,483.5273,485.5189,block1,f,1,0,16,16,23,1,0,bottom_left,neutral,no_target,0.7659,,,,,,,,,,,,,,,,,
,,,,,049528,m,y,l,n,11,0,2025-04-05_11h30.12.362,VisualSearchFaces,2024.2.4,Win32,60.24096386,,,,,,,,486.5312,486.6421,486.6422,488.6467,block1,j,0,0,17,17,38,1,0,bottom_left,threatening,no_target,1.3177,,,,,,,,,,,,,,,,,
,,,,,049528,m,y,l,n,11,0,2025-04-05_11h30.12.362,VisualSearchFaces,2024.2.4,Win32,60.24096386,,,,,,,,489.6434,489.7592,489.7594,491.7606,block1,j,1,0,18,18,10,1,1,centre,friendly,neutral,1.2881,,,,,,,,,,,,,,,,,
,,,,,049528,m,y,l,n,11,0,2025-04-05_11h30.12.362,VisualSearchFaces,2024.2.4,Win32,60.24096386,,,,,,,,492.7595,492.872,492.872,494.8701,block1,,0,0,19,19,25,1,0,centre,neutral,no_target,,,,,,,,,,,,,,,,,,
,,,,,049528,m,y,l,n,11,0,2025-04-05_11h30.12.362,VisualSearchFaces,2024.2.4,Win32,60.24096386,,,,,,,,495.8678,495.9727,495.9727,497.9771,block1,j,0,0,20,20,35,1,0,centre,threatening,no_target,1.3355,,,,,,,,,,,,,,,,,
,,,,,049528,m,y,l,n,11,0,2025-04-05_11h30.12.362,VisualSearchFaces,2024.2.4,Win32,60.24096386,,,,,,,,498.9773,499.0891,499.0891,501.0782,block1,f,1,0,21,21,20,1,0,centre,neutral,no_target,1.5703,,,,,,,,,,,,,,,,,
,,,,,049528,m,y,l,n,11,0,2025-04-05_11h30.12.362,VisualSearchFaces,2024.2.4,Win32,60.24096386,,,,,,,,502.0927,502.2048,502.2048,504.2041,block1,j,1,0,22,22,17,1,1,top_right,threatening,neutral,0.7674,,,,,,,,,,,,,,,,,
,,,,,049528,m,y,l,n,11,0,2025-04-05_11h30.12.362,VisualSearchFaces,2024.2.4,Win32,60.24096386,,,,,,,,505.2083,505.3267,505.3268,507.3185,block1,j,0,0,23,23,34,1,0,bottom_right,friendly,no_target,0.8333,,,,,,,,,,,,,,,,,
,,,,,049528,m,y,l,n,11,0,2025-04-05_11h30.12.362,VisualSearchFaces,2024.2.4,Win32,60.24096386,,,,,,,,508.3241,508.4363,508.4364,510.429,block1,f,1,0,24,24,27,1,0,top_right,neutral,no_target,0.9211,,,,,,,,,,,,,,,,,
,,,,,049528,m,y,l,n,11,0,2025-04-05_11h30.12.362,VisualSearchFaces,2024.2.4,Win32,60.24096386,,,,,,,,511.4452,511.5629,511.5629,513.5664,block1,j,0,0,25,25,33,1,0,bottom_left,friendly,no_target,0.6597,,,,,,,,,,,,,,,,,
,,,,,049528,m,y,l,n,11,0,2025-04-05_11h30.12.362,VisualSearchFaces,2024.2.4,Win32,60.24096386,,,,,,,,514.5741,514.6821,514.6822,516.6732,block1,f,1,0,26,26,22,1,0,top_right,neutral,no_target,0.6918,,,,,,,,,,,,,,,,,
,,,,,049528,m,y,l,n,11,0,2025-04-05_11h30.12.362,VisualSearchFaces,2024.2.4,Win32,60.24096386,,,,,,,,517.6753,517.7896,517.7896,519.7821,block1,f,0,0,27,27,13,1,1,bottom_left,friendly,neutral,0.8714,,,,,,,,,,,,,,,,,
,,,,,049528,m,y,l,n,11,0,2025-04-05_11h30.12.362,VisualSearchFaces,2024.2.4,Win32,60.24096386,,,,,,,,520.7947,520.93,520.9301,522.9229,block1,j,1,0,28,28,6,1,1,top_left,neutral,threatening,0.7714,,,,,,,,,,,,,,,,,
,,,,,049528,m,y,l,n,11,0,2025-04-05_11h30.12.362,VisualSearchFaces,2024.2.4,Win32,60.24096386,,,,,,,,523.9338,524.0476,524.0477,526.0416,block1,j,0,0,29,29,31,1,0,top_left,friendly,no_target,0.7674,,,,,,,,,,,,,,,,,
,,,,,049528,m,y,l,n,11,0,2025-04-05_11h30.12.362,VisualSearchFaces,2024.2.4,Win32,60.24096386,,,,,,,,527.0578,527.1726,527.1726,529.1661,block1,j,1,0,30,30,7,1,1,top_right,neutral,threatening,0.6872,,,,,,,,,,,,,,,,,
,,,,,049528,m,y,l,n,11,0,2025-04-05_11h30.12.362,VisualSearchFaces,2024.2.4,Win32,60.24096386,,,,,,,,530.1811,530.2882,530.2882,532.2799,block1,f,1,0,31,31,29,1,0,bottom_right,neutral,no_target,1.0178,,,,,,,,,,,,,,,,,
,,,,,049528,m,y,l,n,11,0,2025-04-05_11h30.12.362,VisualSearchFaces,2024.2.4,Win32,60.24096386,,,,,,,,533.2948,533.4091,533.4092,535.4094,block1,j,1,0,32,32,14,1,1,bottom_right,friendly,neutral,0.6926,,,,,,,,,,,,,,,,,
,,,,,049528,m,y,l,n,11,0,2025-04-05_11h30.12.362,VisualSearchFaces,2024.2.4,Win32,60.24096386,,,,,,,,536.4083,536.523,536.5231,538.521,block1,j,0,0,33,33,39,1,0,bottom_right,threatening,no_target,0.691,,,,,,,,,,,,,,,,,
,,,,,049528,m,y,l,n,11,0,2025-04-05_11h30.12.362,VisualSearchFaces,2024.2.4,Win32,60.24096386,,,,,,,,539.5225,539.6419,539.642,541.6404,block1,j,1,0,34,34,3,1,1,bottom_left,neutral,friendly,0.7274,,,,,,,,,,,,,,,,,
,,,,,049528,m,y,l,n,11,0,2025-04-05_11h30.12.362,VisualSearchFaces,2024.2.4,Win32,60.24096386,,,,,,,,542.6451,542.7534,542.7534,544.7521,block1,j,1,0,35,35,0,1,1,centre,neutral,friendly,0.9464,,,,,,,,,,,,,,,,,
,,,,,049528,m,y,l,n,11,0,2025-04-05_11h30.12.362,VisualSearchFaces,2024.2.4,Win32,60.24096386,,,,,,,,545.7566,545.8753,545.8753,547.8745,block1,j,0,0,36,36,32,1,0,top_right,friendly,no_target,0.6226,,,,,,,,,,,,,,,,,
,,,,,049528,m,y,l,n,11,0,2025-04-05_11h30.12.362,VisualSearchFaces,2024.2.4,Win32,60.24096386,,,,,,,,548.8766,548.982,548.9821,550.9745,block1,j,1,0,37,37,12,1,1,top_right,friendly,neutral,0.5964,,,,,,,,,,,,,,,,,
,,,,,049528,m,y,l,n,11,0,2025-04-05_11h30.12.362,VisualSearchFaces,2024.2.4,Win32,60.24096386,,,,,,,,551.9838,552.0938,552.0939,554.0909,block1,f,1,0,38,38,21,1,0,top_left,neutral,no_target,1.0728,,,,,,,,,,,,,,,,,
,,,,,049528,m,y,l,n,11,0,2025-04-05_11h30.12.362,VisualSearchFaces,2024.2.4,Win32,60.24096386,,,,,,,,555.1023,555.2022,555.2023,557.2001,block1,f,1,0,39,39,24,1,0,bottom_right,neutral,no_target,0.6086,,,,,,,,,,,,,,,,,
,,,,,049528,m,y,l,n,11,0,2025-04-05_11h30.12.362,VisualSearchFaces,2024.2.4,Win32,60.24096386,,,,,,,,558.2067,558.3185,558.3185,560.324,block1,j,1,1,0,40,2,1,1,top_right,neutral,friendly,0.7625,,,,,,,,,,,,,,,,,
,,,,,049528,m,y,l,n,11,0,2025-04-05_11h30.12.362,VisualSearchFaces,2024.2.4,Win32,60.24096386,,,,,,,,561.316,561.4173,561.4174,563.3972,block1,j,1,1,1,41,0,1,1,centre,neutral,friendly,0.6501,,,,,,,,,,,,,,,,,
,,,,,049528,m,y,l,n,11,0,2025-04-05_11h30.12.362,VisualSearchFaces,2024.2.4,Win32,60.24096386,,,,,,,,564.4017,564.5215,564.5216,566.521,block1,j,0,1,2,42,35,1,0,centre,threatening,no_target,0.806,,,,,,,,,,,,,,,,,
,,,,,049528,m,y,l,n,11,0,2025-04-05_11h30.12.362,VisualSearchFaces,2024.2.4,Win32,60.24096386,,,,,,,,567.5197,567.6294,567.6294,569.6112,block1,j,1,1,3,43,13,1,1,bottom_left,friendly,neutral,0.8268,,,,,,,,,,,,,,,,,
,,,,,049528,m,y,l,n,11,0,2025-04-05_11h30.12.362,VisualSearchFaces,2024.2.4,Win32,60.24096386,,,,,,,,570.635,570.7381,570.7382,572.7273,block1,j,1,1,4,44,19,1,1,bottom_right,threatening,neutral,0.6905,,,,,,,,,,,,,,,,,
,,,,,049528,m,y,l,n,11,0,2025-04-05_11h30.12.362,VisualSearchFaces,2024.2.4,Win32,60.24096386,,,,,,,,573.7357,573.8489,573.849,575.8289,block1,f,1,1,5,45,21,1,0,top_left,neutral,no_target,0.9769,,,,,,,,,,,,,,,,,
,,,,,049528,m,y,l,n,11,0,2025-04-05_11h30.12.362,VisualSearchFaces,2024.2.4,Win32,60.24096386,,,,,,,,576.8469,576.9531,576.9532,578.9441,block1,j,1,1,6,46,8,1,1,bottom_left,neutral,threatening,0.753,,,,,,,,,,,,,,,,,
,,,,,049528,m,y,l,n,11,0,2025-04-05_11h30.12.362,VisualSearchFaces,2024.2.4,Win32,60.24096386,,,,,,,,579.9531,580.0637,580.0638,582.0545,block1,j,1,1,7,47,4,1,1,bottom_right,neutral,friendly,0.8423,,,,,,,,,,,,,,,,,
,,,,,049528,m,y,l,n,11,0,2025-04-05_11h30.12.362,VisualSearchFaces,2024.2.4,Win32,60.24096386,,,,,,,,583.0489,583.1628,583.1629,585.1427,block1,j,1,1,8,48,18,1,1,bottom_left,threatening,neutral,0.5034,,,,,,,,,,,,,,,,,
,,,,,049528,m,y,l,n,11,0,2025-04-05_11h30.12.362,VisualSearchFaces,2024.2.4,Win32,60.24096386,,,,,,,,586.1682,586.2645,586.2646,588.2679,block1,j,1,1,9,49,16,1,1,top_left,threatening,neutral,0.6042,,,,,,,,,,,,,,,,,
,,,,,049528,m,y,l,n,11,0,2025-04-05_11h30.12.362,VisualSearchFaces,2024.2.4,Win32,60.24096386,,,,,,,,589.2488,589.3578,589.3578,591.3631,block1,f,0,1,10,50,14,1,1,bottom_right,friendly,neutral,1.3698,,,,,,,,,,,,,,,,,
,,,,,049528,m,y,l,n,11,0,2025-04-05_11h30.12.362,VisualSearchFaces,2024.2.4,Win32,60.24096386,,,,,,,,592.3524,592.4671,592.4672,594.4688,block1,j,1,1,11,51,1,1,1,top_left,neutral,friendly,0.6622,,,,,,,,,,,,,,,,,
,,,,,049528,m,y,l,n,11,0,2025-04-05_11h30.12.362,VisualSearchFaces,2024.2.4,Win32,60.24096386,,,,,,,,595.4644,595.5698,595.5698,597.5615,block1,j,1,1,12,52,5,1,1,centre,neutral,threatening,0.6975,,,,,,,,,,,,,,,,,
,,,,,049528,m,y,l,n,11,0,2025-04-05_11h30.12.362,VisualSearchFaces,2024.2.4,Win32,60.24096386,,,,,,,,598.5656,598.6655,598.6656,600.6576,block1,j,1,1,13,53,9,1,1,bottom_right,neutral,threatening,0.7162,,,,,,,,,,,,,,,,,
,,,,,049528,m,y,l,n,11,0,2025-04-05_11h30.12.362,VisualSearchFaces,2024.2.4,Win32,60.24096386,,,,,,,,601.6467,601.7571,601.7572,603.7568,block1,j,0,1,14,54,39,1,0,bottom_right,threatening,no_target,0.9454,,,,,,,,,,,,,,,,,
,,,,,049528,m,y,l,n,11,0,2025-04-05_11h30.12.362,VisualSearchFaces,2024.2.4,Win32,60.24096386,,,,,,,,604.7638,604.8778,604.8778,606.8662,block1,f,1,1,15,55,31,1,0,top_left,friendly,no_target,0.7481,,,,,,,,,,,,,,,,,
,,,,,049528,m,y,l,n,11,0,2025-04-05_11h30.12.362,VisualSearchFaces,2024.2.4,Win32,60.24096386,,,,,,,,607.8826,608.003,608.0031,609.9937,block1,j,1,1,16,56,3,1,1,bottom_left,neutral,friendly,0.6755,,,,,,,,,,,,,,,,,
,,,,,049528,m,y,l,n,11,0,2025-04-05_11h30.12.362,VisualSearchFaces,2024.2.4,Win32,60.24096386,,,,,,,,610.9963,611.1009,611.101,613.0913,block1,j,1,1,17,57,6,1,1,top_left,neutral,threatening,0.5221,,,,,,,,,,,,,,,,,
,,,,,049528,m,y,l,n,11,0,2025-04-05_11h30.12.362,VisualSearchFaces,2024.2.4,Win32,60.24096386,,,,,,,,614.096,614.2053,614.2053,616.21,block1,j,0,1,18,58,37,1,0,top_right,threatening,no_target,0.5899,,,,,,,,,,,,,,,,,
,,,,,049528,m,y,l,n,11,0,2025-04-05_11h30.12.362,VisualSearchFaces,2024.2.4,Win32,60.24096386,,,,,,,,617.2099,617.3168,617.3169,619.3115,block1,j,0,1,19,59,30,1,0,centre,friendly,no_target,0.6538,,,,,,,,,,,,,,,,,
,,,,,049528,m,y,l,n,11,0,2025-04-05_11h30.12.362,VisualSearchFaces,2024.2.4,Win32,60.24096386,,,,,,,,620.3115,620.423,620.423,622.4251,block1,f,1,1,20,60,26,1,0,top_left,neutral,no_target,0.7516,,,,,,,,,,,,,,,,,
,,,,,049528,m,y,l,n,11,0,2025-04-05_11h30.12.362,VisualSearchFaces,2024.2.4,Win32,60.24096386,,,,,,,,623.4263,623.5272,623.5274,625.5041,block1,f,1,1,21,61,27,1,0,top_right,neutral,no_target,0.4586,,,,,,,,,,,,,,,,,
,,,,,049528,m,y,l,n,11,0,2025-04-05_11h30.12.362,VisualSearchFaces,2024.2.4,Win32,60.24096386,,,,,,,,626.5124,626.6317,626.6318,628.6368,block1,j,0,1,22,62,32,1,0,top_right,friendly,no_target,0.574,,,,,,,,,,,,,,,,,
,,,,,049528,m,y,l,n,11,0,2025-04-05_11h30.12.362,VisualSearchFaces,2024.2.4,Win32,60.24096386,,,,,,,,629.6426,629.747,629.7471,631.7467,block1,j,1,1,23,63,12,1,1,top_right,friendly,neutral,0.6107,,,,,,,,,,,,,,,,,
,,,,,049528,m,y,l,n,11,0,2025-04-05_11h30.12.362,VisualSearchFaces,2024.2.4,Win32,60.24096386,,,,,,,,632.749,632.8602,632.8602,634.8617,block1,j,1,1,24,64,17,1,1,top_right,threatening,neutral,1.1327,,,,,,,,,,,,,,,,,
,,,,,049528,m,y,l,n,11,0,2025-04-05_11h30.12.362,VisualSearchFaces,2024.2.4,Win32,60.24096386,,,,,,,,635.8632,635.9755,635.9756,637.9661,block1,j,1,1,25,65,7,1,1,top_right,neutral,threatening,0.6592,,,,,,,,,,,,,,,,,
,,,,,049528,m,y,l,n,11,0,2025-04-05_11h30.12.362,VisualSearchFaces,2024.2.4,Win32,60.24096386,,,,,,,,638.9791,639.0851,639.0852,641.0762,block1,f,1,1,26,66,23,1,0,bottom_left,neutral,no_target,0.5969,,,,,,,,,,,,,,,,,
,,,,,049528,m,y,l,n,11,0,2025-04-05_11h30.12.362,VisualSearchFaces,2024.2.4,Win32,60.24096386,,,,,,,,642.0762,642.1781,642.1781,644.1777,block1,f,1,1,27,67,22,1,0,top_right,neutral,no_target,0.5536,,,,,,,,,,,,,,,,,
,,,,,049528,m,y,l,n,11,0,2025-04-05_11h30.12.362,VisualSearchFaces,2024.2.4,Win32,60.24096386,,,,,,,,645.1745,645.2878,645.2878,647.281,block1,f,1,1,28,68,33,1,0,bottom_left,friendly,no_target,1.2434,,,,,,,,,,,,,,,,,
,,,,,049528,m,y,l,n,11,0,2025-04-05_11h30.12.362,VisualSearchFaces,2024.2.4,Win32,60.24096386,,,,,,,,648.2943,648.4105,648.4106,650.4101,block1,f,0,1,29,69,15,1,1,centre,threatening,neutral,0.9097,,,,,,,,,,,,,,,,,
,,,,,049528,m,y,l,n,11,0,2025-04-05_11h30.12.362,VisualSearchFaces,2024.2.4,Win32,60.24096386,,,,,,,,651.4086,651.5123,651.5124,653.5151,block1,f,1,1,30,70,36,1,0,top_left,threatening,no_target,0.5282,,,,,,,,,,,,,,,,,
,,,,,049528,m,y,l,n,11,0,2025-04-05_11h30.12.362,VisualSearchFaces,2024.2.4,Win32,60.24096386,,,,,,,,654.5181,654.6239,654.6239,656.6272,block1,j,1,1,31,71,10,1,1,centre,friendly,neutral,0.7474,,,,,,,,,,,,,,,,,
,,,,,049528,m,y,l,n,11,0,2025-04-05_11h30.12.362,VisualSearchFaces,2024.2.4,Win32,60.24096386,,,,,,,,657.6238,657.7429,657.743,659.7309,block1,f,1,1,32,72,25,1,0,centre,neutral,no_target,0.5996,,,,,,,,,,,,,,,,,
,,,,,049528,m,y,l,n,11,0,2025-04-05_11h30.12.362,VisualSearchFaces,2024.2.4,Win32,60.24096386,,,,,,,,660.7391,660.8389,660.8389,662.835,block1,f,1,1,33,73,29,1,0,bottom_right,neutral,no_target,0.4327,,,,,,,,,,,,,,,,,
,,,,,049528,m,y,l,n,11,0,2025-04-05_11h30.12.362,VisualSearchFaces,2024.2.4,Win32,60.24096386,,,,,,,,663.8385,663.9505,663.9505,665.9412,block1,j,1,1,34,74,11,1,1,top_left,friendly,neutral,0.6272,,,,,,,,,,,,,,,,,
,,,,,049528,m,y,l,n,11,0,2025-04-05_11h30.12.362,VisualSearchFaces,2024.2.4,Win32,60.24096386,,,,,,,,666.948,667.0587,667.0588,669.0605,block1,j,0,1,35,75,24,1,0,bottom_right,neutral,no_target,0.6401,,,,,,,,,,,,,,,,,
,,,,,049528,m,y,l,n,11,0,2025-04-05_11h30.12.362,VisualSearchFaces,2024.2.4,Win32,60.24096386,,,,,,,,670.0522,670.1633,670.1634,672.1528,block1,f,1,1,36,76,34,1,0,bottom_right,friendly,no_target,1.0615,,,,,,,,,,,,,,,,,
,,,,,049528,m,y,l,n,11,0,2025-04-05_11h30.12.362,VisualSearchFaces,2024.2.4,Win32,60.24096386,,,,,,,,673.1689,673.2884,673.2885,675.2673,block1,f,1,1,37,77,20,1,0,centre,neutral,no_target,0.5751,,,,,,,,,,,,,,,,,
,,,,,049528,m,y,l,n,11,0,2025-04-05_11h30.12.362,VisualSearchFaces,2024.2.4,Win32,60.24096386,,,,,,,,676.2718,676.3702,676.3702,678.3594,block1,f,1,1,38,78,28,1,0,bottom_left,neutral,no_target,0.4672,,,,,,,,,,,,,,,,,
,,,,,049528,m,y,l,n,11,0,2025-04-05_11h30.12.362,VisualSearchFaces,2024.2.4,Win32,60.24096386,,,,,,,,679.3652,679.4762,679.4763,681.4656,block1,f,1,1,39,79,38,1,0,bottom_left,threatening,no_target,0.7003,,,,,,,,,,,,,,,,,
,,,,,049528,m,y,l,n,11,0,2025-04-05_11h30.12.362,VisualSearchFaces,2024.2.4,Win32,60.24096386,,,699.9984,701.2045,space,1.1487,,702.2434,702.3642,702.3643,704.3699,block2,f,0,0,0,0,14,1,1,bottom_right,friendly,neutral,0.6585,,681.4708,699.99,space,18.4812,,,,,,,,,,,,
,,,,,049528,m,y,l,n,11,0,2025-04-05_11h30.12.362,VisualSearchFaces,2024.2.4,Win32,60.24096386,,,,,,,,705.3691,705.4743,705.4745,707.4654,block2,f,1,0,1,1,32,1,0,top_right,friendly,no_target,0.4584,,,,,,,,,,,,,,,,,
,,,,,049528,m,y,l,n,11,0,2025-04-05_11h30.12.362,VisualSearchFaces,2024.2.4,Win32,60.24096386,,,,,,,,708.4707,708.5929,708.593,710.5999,block2,j,1,0,2,2,16,1,1,top_left,threatening,neutral,1.0782,,,,,,,,,,,,,,,,,
,,,,,049528,m,y,l,n,11,0,2025-04-05_11h30.12.362,VisualSearchFaces,2024.2.4,Win32,60.24096386,,,,,,,,711.5876,711.6941,711.6942,713.6931,block2,f,0,0,3,3,15,1,1,centre,threatening,neutral,0.5887,,,,,,,,,,,,,,,,,
,,,,,049528,m,y,l,n,11,0,2025-04-05_11h30.12.362,VisualSearchFaces,2024.2.4,Win32,60.24096386,,,,,,,,714.6901,714.7985,714.7985,716.7763,block2,f,1,0,4,4,35,1,0,centre,threatening,no_target,0.4514,,,,,,,,,,,,,,,,,
,,,,,049528,m,y,l,n,11,0,2025-04-05_11h30.12.362,VisualSearchFaces,2024.2.4,Win32,60.24096386,,,,,,,,717.8003,717.924,717.924,719.918,block2,j,1,0,5,5,8,1,1,bottom_left,neutral,threatening,0.7378,,,,,,,,,,,,,,,,,
,,,,,049528,m,y,l,n,11,0,2025-04-05_11h30.12.362,VisualSearchFaces,2024.2.4,Win32,60.24096386,,,,,,,,720.9197,721.0405,721.0405,723.0281,block2,f,0,0,6,6,1,1,1,top_left,neutral,friendly,0.9583,,,,,,,,,,,,,,,,,
,,,,,049528,m,y,l,n,11,0,2025-04-05_11h30.12.362,VisualSearchFaces,2024.2.4,Win32,60.24096386,,,,,,,,724.0368,724.1428,724.1429,726.132,block2,f,1,0,7,7,27,1,0,top_right,neutral,no_target,0.4068,,,,,,,,,,,,,,,,,
,,,,,049528,m,y,l,n,11,0,2025-04-05_11h30.12.362,VisualSearchFaces,2024.2.4,Win32,60.24096386,,,,,,,,727.1347,727.2428,727.2428,729.2489,block2,f,1,0,8,8,39,1,0,bottom_right,threatening,no_target,1.2598,,,,,,,,,,,,,,,,,
,,,,,049528,m,y,l,n,11,0,2025-04-05_11h30.12.362,VisualSearchFaces,2024.2.4,Win32,60.24096386,,,,,,,,730.2372,730.3664,730.3664,732.3457,block2,j,1,0,9,9,2,1,1,top_right,neutral,friendly,0.9209,,,,,,,,,,,,,,,,,
,,,,,049528,m,y,l,n,11,0,2025-04-05_11h30.12.362,VisualSearchFaces,2024.2.4,Win32,60.24096386,,,,,,,,733.3669,733.4679,733.4679,735.4672,block2,f,0,0,10,10,18,1,1,bottom_left,threatening,neutral,0.6534,,,,,,,,,,,,,,,,,
,,,,,049528,m,y,l,n,11,0,2025-04-05_11h30.12.362,VisualSearchFaces,2024.2.4,Win32,60.24096386,,,,,,,,736.4503,736.5565,736.5566,738.5575,block2,f,1,0,11,11,37,1,0,top_right,threatening,no_target,0.643,,,,,,,,,,,,,,,,,
,,,,,049528,m,y,l,n,11,0,2025-04-05_11h30.12.362,VisualSearchFaces,2024.2.4,Win32,60.24096386,,,,,,,,739.5653,739.6689,739.6691,741.6751,block2,f,1,0,12,12,36,1,0,top_left,threatening,no_target,0.7603,,,,,,,,,,,,,,,,,
,,,,,049528,m,y,l,n,11,0,2025-04-05_11h30.12.362,VisualSearchFaces,2024.2.4,Win32,60.24096386,,,,,,,,742.6816,742.7926,742.7928,744.7845,block2,j,0,0,13,13,30,1,0,centre,friendly,no_target,1.1957,,,,,,,,,,,,,,,,,
,,,,,049528,m,y,l,n,11,0,2025-04-05_11h30.12.362,VisualSearchFaces,2024.2.4,Win32,60.24096386,,,,,,,,745.7813,745.8766,745.8766,747.8638,block2,j,1,0,14,14,4,1,1,bottom_right,neutral,friendly,0.6907,,,,,,,,,,,,,,,,,
,,,,,049528,m,y,l,n,11,0,2025-04-05_11h30.12.362,VisualSearchFaces,2024.2.4,Win32,60.24096386,,,,,,,,748.8726,748.966,748.9661,750.9718,block2,f,1,0,15,15,24,1,0,bottom_right,neutral,no_target,0.6489,,,,,,,,,,,,,,,,,
,,,,,049528,m,y,l,n,11,0,2025-04-05_11h30.12.362,VisualSearchFaces,2024.2.4,Win32,60.24096386,,,,,,,,751.9636,752.0869,752.087,754.0766,block2,j,1,0,16,16,17,1,1,top_right,threatening,neutral,0.5845,,,,,,,,,,,,,,,,,
,,,,,049528,m,y,l,n,11,0,2025-04-05_11h30.12.362,VisualSearchFaces,2024.2.4,Win32,60.24096386,,,,,,,,755.08,755.1885,755.1885,757.1834,block2,j,1,0,17,17,9,1,1,bottom_right,neutral,threatening,0.6586,,,,,,,,,,,,,,,,,
,,,,,049528,m,y,l,n,11,0,2025-04-05_11h30.12.362,VisualSearchFaces,2024.2.4,Win32,60.24096386,,,,,,,,758.1971,758.3258,758.3258,760.321,block2,f,1,0,18,18,38,1,0,bottom_left,threatening,no_target,0.6172,,,,,,,,,,,,,,,,,
,,,,,049528,m,y,l,n,11,0,2025-04-05_11h30.12.362,VisualSearchFaces,2024.2.4,Win32,60.24096386,,,,,,,,761.3143,761.4243,761.4244,763.4165,block2,f,1,0,19,19,26,1,0,top_left,neutral,no_target,0.5602,,,,,,,,,,,,,,,,,
,,,,,049528,m,y,l,n,11,0,2025-04-05_11h30.12.362,VisualSearchFaces,2024.2.4,Win32,60.24096386,,,,,,,,764.4293,764.5415,764.5416,766.5463,block2,j,1,0,20,20,5,1,1,centre,neutral,threatening,0.5894,,,,,,,,,,,,,,,,,
,,,,,049528,m,y,l,n,11,0,2025-04-05_11h30.12.362,VisualSearchFaces,2024.2.4,Win32,60.24096386,,,,,,,,767.5532,767.6523,767.6525,769.6448,block2,f,1,0,21,21,22,1,0,top_right,neutral,no_target,0.5519,,,,,,,,,,,,,,,,,
,,,,,049528,m,y,l,n,11,0,2025-04-05_11h30.12.362,VisualSearchFaces,2024.2.4,Win32,60.24096386,,,,,,,,770.6636,770.7669,770.7669,772.7631,block2,f,1,0,22,22,33,1,0,bottom_left,friendly,no_target,0.832,,,,,,,,,,,,,,,,,
,,,,,049528,m,y,l,n,11,0,2025-04-05_11h30.12.362,VisualSearchFaces,2024.2.4,Win32,60.24096386,,,,,,,,773.7631,773.862,773.862,775.854,block2,j,1,0,23,23,3,1,1,bottom_left,neutral,friendly,0.5953,,,,,,,,,,,,,,,,,
,,,,,049528,m,y,l,n,11,0,2025-04-05_11h30.12.362,VisualSearchFaces,2024.2.4,Win32,60.24096386,,,,,,,,776.8613,776.9687,776.9688,778.9683,block2,j,1,0,24,24,6,1,1,top_left,neutral,threatening,0.6493,,,,,,,,,,,,,,,,,
,,,,,049528,m,y,l,n,11,0,2025-04-05_11h30.12.362,VisualSearchFaces,2024.2.4,Win32,60.24096386,,,,,,,,779.9808,780.0817,780.0817,782.0711,block2,j,1,0,25,25,0,1,1,centre,neutral,friendly,0.4195,,,,,,,,,,,,,,,,,
,,,,,049528,m,y,l,n,11,0,2025-04-05_11h30.12.362,VisualSearchFaces,2024.2.4,Win32,60.24096386,,,,,,,,783.0835,783.1838,783.1838,785.1896,block2,f,1,0,26,26,34,1,0,bottom_right,friendly,no_target,0.6601,,,,,,,,,,,,,,,,,
,,,,,049528,m,y,l,n,11,0,2025-04-05_11h30.12.362,VisualSearchFaces,2024.2.4,Win32,60.24096386,,,,,,,,786.1947,786.2976,786.2977,788.2872,block2,f,1,0,27,27,21,1,0,top_left,neutral,no_target,0.5524,,,,,,,,,,,,,,,,,
,,,,,049528,m,y,l,n,11,0,2025-04-05_11h30.12.362,VisualSearchFaces,2024.2.4,Win32,60.24096386,,,,,,,,789.2942,789.4153,789.4153,791.4139,block2,f,1,0,28,28,31,1,0,top_left,friendly,no_target,0.7256,,,,,,,,,,,,,,,,,
,,,,,049528,m,y,l,n,11,0,2025-04-05_11h30.12.362,VisualSearchFaces,2024.2.4,Win32,60.24096386,,,,,,,,792.4088,792.5229,792.523,794.5128,block2,f,1,0,29,29,23,1,0,bottom_left,neutral,no_target,0.5269,,,,,,,,,,,,,,,,,
,,,,,049528,m,y,l,n,11,0,2025-04-05_11h30.12.362,VisualSearchFaces,2024.2.4,Win32,60.24096386,,,,,,,,795.5314,795.6468,795.6469,797.6506,block2,j,1,0,30,30,11,1,1,top_left,friendly,neutral,0.7461,,,,,,,,,,,,,,,,,
,,,,,049528,m,y,l,n,11,0,2025-04-05_11h30.12.362,VisualSearchFaces,2024.2.4,Win32,60.24096386,,,,,,,,798.6389,798.7467,798.7467,800.7397,block2,f,1,0,31,31,29,1,0,bottom_right,neutral,no_target,1.0774,,,,,,,,,,,,,,,,,
,,,,,049528,m,y,l,n,11,0,2025-04-05_11h30.12.362,VisualSearchFaces,2024.2.4,Win32,60.24096386,,,,,,,,801.757,801.8605,801.8605,803.8529,block2,j,1,0,32,32,7,1,1,top_right,neutral,threatening,0.6954,,,,,,,,,,,,,,,,,
,,,,,049528,m,y,l,n,11,0,2025-04-05_11h30.12.362,VisualSearchFaces,2024.2.4,Win32,60.24096386,,,,,,,,804.8573,804.9644,804.9645,806.9589,block2,f,0,0,33,33,10,1,1,centre,friendly,neutral,0.7521,,,,,,,,,,,,,,,,,
,,,,,049528,m,y,l,n,11,0,2025-04-05_11h30.12.362,VisualSearchFaces,2024.2.4,Win32,60.24096386,,,,,,,,807.9706,808.0712,808.0712,810.0691,block2,j,1,0,34,34,12,1,1,top_right,friendly,neutral,0.5458,,,,,,,,,,,,,,,,,
,,,,,049528,m,y,l,n,11,0,2025-04-05_11h30.12.362,VisualSearchFaces,2024.2.4,Win32,60.24096386,,,,,,,,811.0724,811.1948,811.1949,813.1852,block2,f,1,0,35,35,25,1,0,centre,neutral,no_target,0.8196,,,,,,,,,,,,,,,,,
,,,,,049528,m,y,l,n,11,0,2025-04-05_11h30.12.362,VisualSearchFaces,2024.2.4,Win32,60.24096386,,,,,,,,814.1871,814.2867,814.2868,816.2793,block2,f,1,0,36,36,20,1,0,centre,neutral,no_target,0.5613,,,,,,,,,,,,,,,,,
,,,,,049528,m,y,l,n,11,0,2025-04-05_11h30.12.362,VisualSearchFaces,2024.2.4,Win32,60.24096386,,,,,,,,817.2857,817.3899,817.3899,819.3828,block2,f,1,0,37,37,28,1,0,bottom_left,neutral,no_target,0.3825,,,,,,,,,,,,,,,,,
,,,,,049528,m,y,l,n,11,0,2025-04-05_11h30.12.362,VisualSearchFaces,2024.2.4,Win32,60.24096386,,,,,,,,820.4044,820.5233,820.5234,822.522,block2,j,1,0,38,38,13,1,1,bottom_left,friendly,neutral,0.6685,,,,,,,,,,,,,,,,,
,,,,,049528,m,y,l,n,11,0,2025-04-05_11h30.12.362,VisualSearchFaces,2024.2.4,Win32,60.24096386,,,,,,,,823.5177,823.6192,823.6193,825.624,block2,f,0,0,39,39,19,1,1,bottom_right,threatening,neutral,1.2004,,,,,,,,,,,,,,,,,
,,,,,049528,m,y,l,n,11,0,2025-04-05_11h30.12.362,VisualSearchFaces,2024.2.4,Win32,60.24096386,,,,,,,,826.6213,826.726,826.7262,828.7146,block2,f,1,1,0,40,35,1,0,centre,threatening,no_target,0.5336,,,,,,,,,,,,,,,,,
,,,,,049528,m,y,l,n,11,0,2025-04-05_11h30.12.362,VisualSearchFaces,2024.2.4,Win32,60.24096386,,,,,,,,829.7279,829.8522,829.8522,831.8518,block2,f,0,1,1,41,14,1,1,bottom_right,friendly,neutral,0.7345,,,,,,,,,,,,,,,,,
,,,,,049528,m,y,l,n,11,0,2025-04-05_11h30.12.362,VisualSearchFaces,2024.2.4,Win32,60.24096386,,,,,,,,832.8509,832.9559,832.956,834.9619,block2,f,0,1,2,42,17,1,1,top_right,threatening,neutral,0.5683,,,,,,,,,,,,,,,,,
,,,,,049528,m,y,l,n,11,0,2025-04-05_11h30.12.362,VisualSearchFaces,2024.2.4,Win32,60.24096386,,,,,,,,835.9606,836.0719,836.0719,838.0707,block2,f,1,1,3,43,31,1,0,top_left,friendly,no_target,0.6156,,,,,,,,,,,,,,,,,
,,,,,049528,m,y,l,n,11,0,2025-04-05_11h30.12.362,VisualSearchFaces,2024.2.4,Win32,60.24096386,,,,,,,,839.0839,839.1976,839.1977,841.1893,block2,j,1,1,4,44,0,1,1,centre,neutral,friendly,0.7528,,,,,,,,,,,,,,,,,
,,,,,049528,m,y,l,n,11,0,2025-04-05_11h30.12.362,VisualSearchFaces,2024.2.4,Win32,60.24096386,,,,,,,,842.2046,842.3256,842.3257,844.3312,block2,f,1,1,5,45,36,1,0,top_left,threatening,no_target,0.6733,,,,,,,,,,,,,,,,,
,,,,,049528,m,y,l,n,11,0,2025-04-05_11h30.12.362,VisualSearchFaces,2024.2.4,Win32,60.24096386,,,,,,,,845.3335,845.4446,845.4447,847.4396,block2,j,1,1,6,46,1,1,1,top_left,neutral,friendly,0.946,,,,,,,,,,,,,,,,,
,,,,,049528,m,y,l,n,11,0,2025-04-05_11h30.12.362,VisualSearchFaces,2024.2.4,Win32,60.24096386,,,,,,,,848.4416,848.5588,848.5589,850.5573,block2,f,1,1,7,47,37,1,0,top_right,threatening,no_target,0.6678,,,,,,,,,,,,,,,,,
,,,,,049528,m,y,l,n,11,0,2025-04-05_11h30.12.362,VisualSearchFaces,2024.2.4,Win32,60.24096386,,,,,,,,851.566,851.6782,851.6782,853.6734,block2,f,1,1,8,48,33,1,0,bottom_left,friendly,no_target,0.6365,,,,,,,,,,,,,,,,,
,,,,,049528,m,y,l,n,11,0,2025-04-05_11h30.12.362,VisualSearchFaces,2024.2.4,Win32,60.24096386,,,,,,,,854.6826,854.797,854.797,856.7876,block2,j,0,1,9,49,23,1,0,bottom_left,neutral,no_target,0.8742,,,,,,,,,,,,,,,,,
,,,,,049528,m,y,l,n,11,0,2025-04-05_11h30.12.362,VisualSearchFaces,2024.2.4,Win32,60.24096386,,,,,,,,857.7825,857.8931,857.8932,859.8978,block2,f,1,1,10,50,30,1,0,centre,friendly,no_target,0.6145,,,,,,,,,,,,,,,,,
,,,,,049528,m,y,l,n,11,0,2025-04-05_11h30.12.362,VisualSearchFaces,2024.2.4,Win32,60.24096386,,,,,,,,860.8985,861.0189,861.0189,863.0101,block2,f,1,1,11,51,24,1,0,bottom_right,neutral,no_target,0.5394,,,,,,,,,,,,,,,,,
,,,,,049528,m,y,l,n,11,0,2025-04-05_11h30.12.362,VisualSearchFaces,2024.2.4,Win32,60.24096386,,,,,,,,864.0247,864.1311,864.1313,866.126,block2,j,1,1,12,52,9,1,1,bottom_right,neutral,threatening,0.5865,,,,,,,,,,,,,,,,,
,,,,,049528,m,y,l,n,11,0,2025-04-05_11h30.12.362,VisualSearchFaces,2024.2.4,Win32,60.24096386,,,,,,,,867.1296,867.2335,867.2336,869.2329,block2,j,1,1,13,53,3,1,1,bottom_left,neutral,friendly,0.7063,,,,,,,,,,,,,,,,,
,,,,,049528,m,y,l,n,11,0,2025-04-05_11h30.12.362,VisualSearchFaces,2024.2.4,Win32,60.24096386,,,,,,,,870.2278,870.3332,870.3332,872.3236,block2,f,1,1,14,54,29,1,0,bottom_right,neutral,no_target,0.5339,,,,,,,,,,,,,,,,,
,,,,,049528,m,y,l,n,11,0,2025-04-05_11h30.12.362,VisualSearchFaces,2024.2.4,Win32,60.24096386,,,,,,,,873.3289,873.4434,873.4435,875.4342,block2,j,1,1,15,55,11,1,1,top_left,friendly,neutral,0.6274,,,,,,,,,,,,,,,,,
,,,,,049528,m,y,l,n,11,0,2025-04-05_11h30.12.362,VisualSearchFaces,2024.2.4,Win32,60.24096386,,,,,,,,876.4444,876.5603,876.5603,878.5562,block2,j,1,1,16,56,6,1,1,top_left,neutral,threatening,0.7224,,,,,,,,,,,,,,,,,
,,,,,049528,m,y,l,n,11,0,2025-04-05_11h30.12.362,VisualSearchFaces,2024.2.4,Win32,60.24096386,,,,,,,,879.5681,879.6962,879.6962,881.6874,block2,f,0,1,17,57,18,1,1,bottom_left,threatening,neutral,0.5937,,,,,,,,,,,,,,,,,
,,,,,049528,m,y,l,n,11,0,2025-04-05_11h30.12.362,VisualSearchFaces,2024.2.4,Win32,60.24096386,,,,,,,,882.6952,882.7985,882.7986,884.7745,block2,f,0,1,18,58,10,1,1,centre,friendly,neutral,0.6872,,,,,,,,,,,,,,,,,
,,,,,049528,m,y,l,n,11,0,2025-04-05_11h30.12.362,VisualSearchFaces,2024.2.4,Win32,60.24096386,,,,,,,,885.8022,885.9114,885.9114,887.9171,block2,j,1,1,19,59,8,1,1,bottom_left,neutral,threatening,0.5386,,,,,,,,,,,,,,,,,
,,,,,049528,m,y,l,n,11,0,2025-04-05_11h30.12.362,VisualSearchFaces,2024.2.4,Win32,60.24096386,,,,,,,,888.8964,889.0087,889.0087,891.0048,block2,f,0,1,20,60,19,1,1,bottom_right,threatening,neutral,0.5748,,,,,,,,,,,,,,,,,
,,,,,049528,m,y,l,n,11,0,2025-04-05_11h30.12.362,VisualSearchFaces,2024.2.4,Win32,60.24096386,,,,,,,,892.0106,892.1132,892.1132,894.1069,block2,f,0,1,21,61,13,1,1,bottom_left,friendly,neutral,0.6504,,,,,,,,,,,,,,,,,
,,,,,049528,m,y,l,n,11,0,2025-04-05_11h30.12.362,VisualSearchFaces,2024.2.4,Win32,60.24096386,,,,,,,,895.1149,895.2289,895.229,897.2281,block2,f,1,1,22,62,21,1,0,top_left,neutral,no_target,0.7467,,,,,,,,,,,,,,,,,
,,,,,049528,m,y,l,n,11,0,2025-04-05_11h30.12.362,VisualSearchFaces,2024.2.4,Win32,60.24096386,,,,,,,,898.237,898.3498,898.3499,900.3408,block2,f,1,1,23,63,39,1,0,bottom_right,threatening,no_target,0.5556,,,,,,,,,,,,,,,,,
,,,,,049528,m,y,l,n,11,0,2025-04-05_11h30.12.362,VisualSearchFaces,2024.2.4,Win32,60.24096386,,,,,,,,901.3427,901.4555,901.4555,903.4536,block2,j,1,1,24,64,5,1,1,centre,neutral,threatening,1.1155,,,,,,,,,,,,,,,,,
,,,,,049528,m,y,l,n,11,0,2025-04-05_11h30.12.362,VisualSearchFaces,2024.2.4,Win32,60.24096386,,,,,,,,904.4676,904.5801,904.5801,906.5715,block2,f,0,1,25,65,12,1,1,top_right,friendly,neutral,0.7067,,,,,,,,,,,,,,,,,
,,,,,049528,m,y,l,n,11,0,2025-04-05_11h30.12.362,VisualSearchFaces,2024.2.4,Win32,60.24096386,,,,,,,,907.5794,907.6903,907.6904,909.671,block2,f,1,1,26,66,26,1,0,top_left,neutral,no_target,0.5249,,,,,,,,,,,,,,,,,
,,,,,049528,m,y,l,n,11,0,2025-04-05_11h30.12.362,VisualSearchFaces,2024.2.4,Win32,60.24096386,,,,,,,,910.69,910.8025,910.8026,912.8086,block2,j,1,1,27,67,4,1,1,bottom_right,neutral,friendly,0.7808,,,,,,,,,,,,,,,,,
,,,,,049528,m,y,l,n,11,0,2025-04-05_11h30.12.362,VisualSearchFaces,2024.2.4,Win32,60.24096386,,,,,,,,913.798,913.9081,913.9082,915.9014,block2,f,1,1,28,68,25,1,0,centre,neutral,no_target,0.592,,,,,,,,,,,,,,,,,
,,,,,049528,m,y,l,n,11,0,2025-04-05_11h30.12.362,VisualSearchFaces,2024.2.4,Win32,60.24096386,,,,,,,,916.9032,917.0078,917.008,918.996,block2,f,1,1,29,69,20,1,0,centre,neutral,no_target,0.6728,,,,,,,,,,,,,,,,,
,,,,,049528,m,y,l,n,11,0,2025-04-05_11h30.12.362,VisualSearchFaces,2024.2.4,Win32,60.24096386,,,,,,,,920.0069,920.1196,920.1197,922.1012,block2,f,1,1,30,70,32,1,0,top_right,friendly,no_target,0.8244,,,,,,,,,,,,,,,,,
,,,,,049528,m,y,l,n,11,0,2025-04-05_11h30.12.362,VisualSearchFaces,2024.2.4,Win32,60.24096386,,,,,,,,923.1323,923.2439,923.2439,925.2404,block2,j,1,1,31,71,2,1,1,top_right,neutral,friendly,0.6523,,,,,,,,,,,,,,,,,
,,,,,049528,m,y,l,n,11,0,2025-04-05_11h30.12.362,VisualSearchFaces,2024.2.4,Win32,60.24096386,,,,,,,,926.242,926.3571,926.3572,928.3565,block2,f,1,1,32,72,38,1,0,bottom_left,threatening,no_target,0.9187,,,,,,,,,,,,,,,,,
,,,,,049528,m,y,l,n,11,0,2025-04-05_11h30.12.362,VisualSearchFaces,2024.2.4,Win32,60.24096386,,,,,,,,929.3671,929.48,929.4801,931.4833,block2,f,1,1,33,73,22,1,0,top_right,neutral,no_target,0.5738,,,,,,,,,,,,,,,,,
,,,,,049528,m,y,l,n,11,0,2025-04-05_11h30.12.362,VisualSearchFaces,2024.2.4,Win32,60.24096386,,,,,,,,932.4878,932.6084,932.6084,934.5976,block2,j,1,1,34,74,16,1,1,top_left,threatening,neutral,0.5366,,,,,,,,,,,,,,,,,
,,,,,049528,m,y,l,n,11,0,2025-04-05_11h30.12.362,VisualSearchFaces,2024.2.4,Win32,60.24096386,,,,,,,,935.6224,935.7457,935.7457,937.744,block2,j,0,1,35,75,34,1,0,bottom_right,friendly,no_target,0.4678,,,,,,,,,,,,,,,,,
,,,,,049528,m,y,l,n,11,0,2025-04-05_11h30.12.362,VisualSearchFaces,2024.2.4,Win32,60.24096386,,,,,,,,938.7395,938.8518,938.8518,940.8574,block2,f,1,1,36,76,28,1,0,bottom_left,neutral,no_target,0.7184,,,,,,,,,,,,,,,,,
,,,,,049528,m,y,l,n,11,0,2025-04-05_11h30.12.362,VisualSearchFaces,2024.2.4,Win32,60.24096386,,,,,,,,941.8616,941.9672,941.9672,943.9696,block2,j,1,1,37,77,15,1,1,centre,threatening,neutral,0.8794,,,,,,,,,,,,,,,,,
,,,,,049528,m,y,l,n,11,0,2025-04-05_11h30.12.362,VisualSearchFaces,2024.2.4,Win32,60.24096386,,,,,,,,944.9702,945.0811,945.0811,947.068,block2,j,1,1,38,78,7,1,1,top_right,neutral,threatening,0.6342,,,,,,,,,,,,,,,,,
,,,,,049528,m,y,l,n,11,0,2025-04-05_11h30.12.362,VisualSearchFaces,2024.2.4,Win32,60.24096386,,,,,,,,948.0874,948.1967,948.1968,950.1922,block2,f,1,1,39,79,27,1,0,top_right,neutral,no_target,0.4744,,,,,,,,,,,,,,,,,
,,,,,049528,m,y,l,n,11,0,2025-04-05_11h30.12.362,VisualSearchFaces,2024.2.4,Win32,60.24096386,,,1086.0821,1088.2407,space,2.0617,,1089.2386,1089.3684,1089.3684,1091.3615,block3,j,1,0,0,0,12,1,1,top_right,friendly,neutral,0.8559,,950.1977,1086.0743,space,135.8346,,,,,,,,,,,,
,,,,,049528,m,y,l,n,11,0,2025-04-05_11h30.12.362,VisualSearchFaces,2024.2.4,Win32,60.24096386,,,,,,,,1092.3688,1092.4867,1092.4869,1094.4941,block3,j,0,0,1,1,37,1,0,top_right,threatening,no_target,0.5065,,,,,,,,,,,,,,,,,
,,,,,049528,m,y,l,n,11,0,2025-04-05_11h30.12.362,VisualSearchFaces,2024.2.4,Win32,60.24096386,,,,,,,,1095.4956,1095.6039,1095.6039,1097.5814,block3,j,1,0,2,2,11,1,1,top_left,friendly,neutral,0.6742,,,,,,,,,,,,,,,,,
,,,,,049528,m,y,l,n,11,0,2025-04-05_11h30.12.362,VisualSearchFaces,2024.2.4,Win32,60.24096386,,,,,,,,1098.6166,1098.7213,1098.7213,1100.7183,block3,f,1,0,3,3,30,1,0,centre,friendly,no_target,0.7089,,,,,,,,,,,,,,,,,
,,,,,049528,m,y,l,n,11,0,2025-04-05_11h30.12.362,VisualSearchFaces,2024.2.4,Win32,60.24096386,,,,,,,,1101.7208,1101.8279,1101.828,1103.8329,block3,f,0,0,4,4,1,1,1,top_left,neutral,friendly,0.8672,,,,,,,,,,,,,,,,,
,,,,,049528,m,y,l,n,11,0,2025-04-05_11h30.12.362,VisualSearchFaces,2024.2.4,Win32,60.24096386,,,,,,,,1104.8345,1104.9404,1104.9404,1106.9348,block3,f,1,0,5,5,31,1,0,top_left,friendly,no_target,0.5304,,,,,,,,,,,,,,,,,
,,,,,049528,m,y,l,n,11,0,2025-04-05_11h30.12.362,VisualSearchFaces,2024.2.4,Win32,60.24096386,,,,,,,,1107.9371,1108.055,1108.0552,1110.0443,block3,f,0,0,6,6,5,1,1,centre,neutral,threatening,0.7512,,,,,,,,,,,,,,,,,
,,,,,049528,m,y,l,n,11,0,2025-04-05_11h30.12.362,VisualSearchFaces,2024.2.4,Win32,60.24096386,,,,,,,,1111.0634,1111.1692,1111.1693,1113.1631,block3,f,1,0,7,7,22,1,0,top_right,neutral,no_target,0.5157,,,,,,,,,,,,,,,,,
,,,,,049528,m,y,l,n,11,0,2025-04-05_11h30.12.362,VisualSearchFaces,2024.2.4,Win32,60.24096386,,,,,,,,1114.1803,1114.2754,1114.2754,1116.2625,block3,f,1,0,8,8,26,1,0,top_left,neutral,no_target,0.4572,,,,,,,,,,,,,,,,,
,,,,,049528,m,y,l,n,11,0,2025-04-05_11h30.12.362,VisualSearchFaces,2024.2.4,Win32,60.24096386,,,,,,,,1117.2809,1117.4067,1117.4068,1119.4066,block3,f,0,0,9,9,14,1,1,bottom_right,friendly,neutral,0.4533,,,,,,,,,,,,,,,,,
,,,,,049528,m,y,l,n,11,0,2025-04-05_11h30.12.362,VisualSearchFaces,2024.2.4,Win32,60.24096386,,,,,,,,1120.4148,1120.5234,1120.5234,1122.516,block3,f,0,0,10,10,19,1,1,bottom_right,threatening,neutral,0.4592,,,,,,,,,,,,,,,,,
,,,,,049528,m,y,l,n,11,0,2025-04-05_11h30.12.362,VisualSearchFaces,2024.2.4,Win32,60.24096386,,,,,,,,1123.5343,1123.6369,1123.6369,1125.6323,block3,f,0,0,11,11,13,1,1,bottom_left,friendly,neutral,0.3449,,,,,,,,,,,,,,,,,
,,,,,049528,m,y,l,n,11,0,2025-04-05_11h30.12.362,VisualSearchFaces,2024.2.4,Win32,60.24096386,,,,,,,,1126.6329,1126.7378,1126.7378,1128.7424,block3,f,1,0,12,12,34,1,0,bottom_right,friendly,no_target,0.2845,,,,,,,,,,,,,,,,,
,,,,,049528,m,y,l,n,11,0,2025-04-05_11h30.12.362,VisualSearchFaces,2024.2.4,Win32,60.24096386,,,,,,,,1129.7444,1129.8698,1129.8698,1131.8693,block3,f,0,0,13,13,4,1,1,bottom_right,neutral,friendly,0.4785,,,,,,,,,,,,,,,,,
,,,,,049528,m,y,l,n,11,0,2025-04-05_11h30.12.362,VisualSearchFaces,2024.2.4,Win32,60.24096386,,,,,,,,1132.8735,1132.9813,1132.9815,1134.9814,block3,f,0,0,14,14,3,1,1,bottom_left,neutral,friendly,0.3364,,,,,,,,,,,,,,,,,
,,,,,049528,m,y,l,n,11,0,2025-04-05_11h30.12.362,VisualSearchFaces,2024.2.4,Win32,60.24096386,,,,,,,,1135.9853,1136.0905,1136.0905,1138.0553,block3,f,1,0,15,15,25,1,0,centre,neutral,no_target,0.3871,,,,,,,,,,,,,,,,,
,,,,,049528,m,y,l,n,11,0,2025-04-05_11h30.12.362,VisualSearchFaces,2024.2.4,Win32,60.24096386,,,,,,,,1139.0902,1139.1965,1139.1967,1141.1886,block3,f,1,0,16,16,20,1,0,centre,neutral,no_target,0.6425,,,,,,,,,,,,,,,,,
,,,,,049528,m,y,l,n,11,0,2025-04-05_11h30.12.362,VisualSearchFaces,2024.2.4,Win32,60.24096386,,,,,,,,1142.1964,1142.3135,1142.3135,1144.3139,block3,f,1,0,17,17,32,1,0,top_right,friendly,no_target,0.4766,,,,,,,,,,,,,,,,,
,,,,,049528,m,y,l,n,11,0,2025-04-05_11h30.12.362,VisualSearchFaces,2024.2.4,Win32,60.24096386,,,,,,,,1145.2962,1145.4091,1145.4092,1147.3958,block3,f,1,0,18,18,23,1,0,bottom_left,neutral,no_target,0.4446,,,,,,,,,,,,,,,,,
,,,,,049528,m,y,l,n,11,0,2025-04-05_11h30.12.362,VisualSearchFaces,2024.2.4,Win32,60.24096386,,,,,,,,1148.4056,1148.5127,1148.5127,1150.5148,block3,f,0,0,19,19,8,1,1,bottom_left,neutral,threatening,0.4385,,,,,,,,,,,,,,,,,
,,,,,049528,m,y,l,n,11,0,2025-04-05_11h30.12.362,VisualSearchFaces,2024.2.4,Win32,60.24096386,,,,,,,,1151.5238,1151.6323,1151.6323,1153.6203,block3,j,1,0,20,20,0,1,1,centre,neutral,friendly,0.5454,,,,,,,,,,,,,,,,,
,,,,,049528,m,y,l,n,11,0,2025-04-05_11h30.12.362,VisualSearchFaces,2024.2.4,Win32,60.24096386,,,,,,,,1154.6281,1154.754,1154.7541,1156.7465,block3,f,1,0,21,21,38,1,0,bottom_left,threatening,no_target,0.5762,,,,,,,,,,,,,,,,,
,,,,,049528,m,y,l,n,11,0,2025-04-05_11h30.12.362,VisualSearchFaces,2024.2.4,Win32,60.24096386,,,,,,,,1157.7537,1157.8571,1157.8573,1159.8475,block3,f,1,0,22,22,29,1,0,bottom_right,neutral,no_target,0.4351,,,,,,,,,,,,,,,,,
,,,,,049528,m,y,l,n,11,0,2025-04-05_11h30.12.362,VisualSearchFaces,2024.2.4,Win32,60.24096386,,,,,,,,1160.8612,1160.9719,1160.972,1162.9548,block3,j,1,0,23,23,17,1,1,top_right,threatening,neutral,0.5359,,,,,,,,,,,,,,,,,
,,,,,049528,m,y,l,n,11,0,2025-04-05_11h30.12.362,VisualSearchFaces,2024.2.4,Win32,60.24096386,,,,,,,,1163.979,1164.0865,1164.0867,1166.0897,block3,f,1,0,24,24,35,1,0,centre,threatening,no_target,0.5711,,,,,,,,,,,,,,,,,
,,,,,049528,m,y,l,n,11,0,2025-04-05_11h30.12.362,VisualSearchFaces,2024.2.4,Win32,60.24096386,,,,,,,,1167.0934,1167.2097,1167.2099,1169.2085,block3,j,1,0,25,25,9,1,1,bottom_right,neutral,threatening,0.5973,,,,,,,,,,,,,,,,,
,,,,,049528,m,y,l,n,11,0,2025-04-05_11h30.12.362,VisualSearchFaces,2024.2.4,Win32,60.24096386,,,,,,,,1170.221,1170.3323,1170.3323,1172.3307,block3,f,1,0,26,26,33,1,0,bottom_left,friendly,no_target,0.769,,,,,,,,,,,,,,,,,
,,,,,049528,m,y,l,n,11,0,2025-04-05_11h30.12.362,VisualSearchFaces,2024.2.4,Win32,60.24096386,,,,,,,,1173.3286,1173.4412,1173.4413,1175.4354,block3,f,0,0,27,27,18,1,1,bottom_left,threatening,neutral,0.6288,,,,,,,,,,,,,,,,,
,,,,,049528,m,y,l,n,11,0,2025-04-05_11h30.12.362,VisualSearchFaces,2024.2.4,Win32,60.24096386,,,,,,,,1176.442,1176.5608,1176.561,1178.5509,block3,f,1,0,28,28,21,1,0,top_left,neutral,no_target,0.4269,,,,,,,,,,,,,,,,,
,,,,,049528,m,y,l,n,11,0,2025-04-05_11h30.12.362,VisualSearchFaces,2024.2.4,Win32,60.24096386,,,,,,,,1179.5582,1179.6666,1179.6667,1181.6671,block3,f,0,0,29,29,16,1,1,top_left,threatening,neutral,0.4056,,,,,,,,,,,,,,,,,
,,,,,049528,m,y,l,n,11,0,2025-04-05_11h30.12.362,VisualSearchFaces,2024.2.4,Win32,60.24096386,,,,,,,,1182.6748,1182.7836,1182.7838,1184.7836,block3,j,0,0,30,30,28,1,0,bottom_left,neutral,no_target,0.288,,,,,,,,,,,,,,,,,
,,,,,049528,m,y,l,n,11,0,2025-04-05_11h30.12.362,VisualSearchFaces,2024.2.4,Win32,60.24096386,,,,,,,,1185.7942,1185.9076,1185.9077,1187.9128,block3,f,0,0,31,31,10,1,1,centre,friendly,neutral,0.7349,,,,,,,,,,,,,,,,,
,,,,,049528,m,y,l,n,11,0,2025-04-05_11h30.12.362,VisualSearchFaces,2024.2.4,Win32,60.24096386,,,,,,,,1188.9077,1189.0219,1189.022,1191.0014,block3,f,1,0,32,32,24,1,0,bottom_right,neutral,no_target,0.4618,,,,,,,,,,,,,,,,,
,,,,,049528,m,y,l,n,11,0,2025-04-05_11h30.12.362,VisualSearchFaces,2024.2.4,Win32,60.24096386,,,,,,,,1192.0188,1192.1281,1192.1282,1194.1179,block3,j,1,0,33,33,7,1,1,top_right,neutral,threatening,0.4256,,,,,,,,,,,,,,,,,
,,,,,049528,m,y,l,n,11,0,2025-04-05_11h30.12.362,VisualSearchFaces,2024.2.4,Win32,60.24096386,,,,,,,,1195.1341,1195.2476,1195.2477,1197.2343,block3,f,0,0,34,34,6,1,1,top_left,neutral,threatening,0.3807,,,,,,,,,,,,,,,,,
,,,,,049528,m,y,l,n,11,0,2025-04-05_11h30.12.362,VisualSearchFaces,2024.2.4,Win32,60.24096386,,,,,,,,1198.2417,1198.3656,1198.3656,1200.3644,block3,j,1,0,35,35,2,1,1,top_right,neutral,friendly,0.7229,,,,,,,,,,,,,,,,,
,,,,,049528,m,y,l,n,11,0,2025-04-05_11h30.12.362,VisualSearchFaces,2024.2.4,Win32,60.24096386,,,,,,,,1201.3631,1201.4896,1201.4897,1203.483,block3,f,1,0,36,36,39,1,0,bottom_right,threatening,no_target,0.6081,,,,,,,,,,,,,,,,,
,,,,,049528,m,y,l,n,11,0,2025-04-05_11h30.12.362,VisualSearchFaces,2024.2.4,Win32,60.24096386,,,,,,,,1204.4884,1204.5937,1204.5937,1206.5997,block3,j,1,0,37,37,15,1,1,centre,threatening,neutral,0.5032,,,,,,,,,,,,,,,,,
,,,,,049528,m,y,l,n,11,0,2025-04-05_11h30.12.362,VisualSearchFaces,2024.2.4,Win32,60.24096386,,,,,,,,1207.5899,1207.6937,1207.6937,1209.6886,block3,j,0,0,38,38,36,1,0,top_left,threatening,no_target,0.4053,,,,,,,,,,,,,,,,,
,,,,,049528,m,y,l,n,11,0,2025-04-05_11h30.12.362,VisualSearchFaces,2024.2.4,Win32,60.24096386,,,,,,,,1210.7001,1210.8134,1210.8134,1212.8188,block3,f,1,0,39,39,27,1,0,top_right,neutral,no_target,0.5462,,,,,,,,,,,,,,,,,
,,,,,049528,m,y,l,n,11,0,2025-04-05_11h30.12.362,VisualSearchFaces,2024.2.4,Win32,60.24096386,,,,,,,,1213.8165,1213.9276,1213.9277,1215.9296,block3,f,1,1,0,40,33,1,0,bottom_left,friendly,no_target,0.5178,,,,,,,,,,,,,,,,,
,,,,,049528,m,y,l,n,11,0,2025-04-05_11h30.12.362,VisualSearchFaces,2024.2.4,Win32,60.24096386,,,,,,,,1216.9219,1217.0438,1217.0439,1219.0357,block3,j,1,1,1,41,1,1,1,top_left,neutral,friendly,0.5409,,,,,,,,,,,,,,,,,
,,,,,049528,m,y,l,n,11,0,2025-04-05_11h30.12.362,VisualSearchFaces,2024.2.4,Win32,60.24096386,,,,,,,,1220.0371,1220.1413,1220.1415,1222.1355,block3,j,1,1,2,42,8,1,1,bottom_left,neutral,threatening,0.779,,,,,,,,,,,,,,,,,
,,,,,049528,m,y,l,n,11,0,2025-04-05_11h30.12.362,VisualSearchFaces,2024.2.4,Win32,60.24096386,,,,,,,,1223.1429,1223.254,1223.2541,1225.245,block3,f,1,1,3,43,37,1,0,top_right,threatening,no_target,1.0329,,,,,,,,,,,,,,,,,
,,,,,049528,m,y,l,n,11,0,2025-04-05_11h30.12.362,VisualSearchFaces,2024.2.4,Win32,60.24096386,,,,,,,,1226.2523,1226.3626,1226.3626,1228.3652,block3,j,1,1,4,44,0,1,1,centre,neutral,friendly,0.5591,,,,,,,,,,,,,,,,,
,,,,,049528,m,y,l,n,11,0,2025-04-05_11h30.12.362,VisualSearchFaces,2024.2.4,Win32,60.24096386,,,,,,,,1229.3514,1229.4526,1229.4527,1231.4552,block3,j,1,1,5,45,2,1,1,top_right,neutral,friendly,0.4467,,,,,,,,,,,,,,,,,
,,,,,049528,m,y,l,n,11,0,2025-04-05_11h30.12.362,VisualSearchFaces,2024.2.4,Win32,60.24096386,,,,,,,,1232.4513,1232.5746,1232.5748,1234.5734,block3,f,1,1,6,46,30,1,0,centre,friendly,no_target,0.7436,,,,,,,,,,,,,,,,,
,,,,,049528,m,y,l,n,11,0,2025-04-05_11h30.12.362,VisualSearchFaces,2024.2.4,Win32,60.24096386,,,,,,,,1235.563,1235.7014,1235.7014,1237.6815,block3,f,1,1,7,47,38,1,0,bottom_left,threatening,no_target,0.5766,,,,,,,,,,,,,,,,,
,,,,,049528,m,y,l,n,11,0,2025-04-05_11h30.12.362,VisualSearchFaces,2024.2.4,Win32,60.24096386,,,,,,,,1238.7078,1238.8257,1238.8257,1240.814,block3,j,0,1,8,48,25,1,0,centre,neutral,no_target,0.5404,,,,,,,,,,,,,,,,,
,,,,,049528,m,y,l,n,11,0,2025-04-05_11h30.12.362,VisualSearchFaces,2024.2.4,Win32,60.24096386,,,,,,,,1241.8186,1241.9228,1241.9229,1243.9224,block3,j,1,1,9,49,7,1,1,top_right,neutral,threatening,0.5156,,,,,,,,,,,,,,,,,
,,,,,049528,m,y,l,n,11,0,2025-04-05_11h30.12.362,VisualSearchFaces,2024.2.4,Win32,60.24096386,,,,,,,,1244.9321,1245.0369,1245.037,1247.042,block3,f,1,1,10,50,23,1,0,bottom_left,neutral,no_target,0.4864,,,,,,,,,,,,,,,,,
,,,,,049528,m,y,l,n,11,0,2025-04-05_11h30.12.362,VisualSearchFaces,2024.2.4,Win32,60.24096386,,,,,,,,1248.045,1248.1504,1248.1505,1250.1284,block3,j,1,1,11,51,3,1,1,bottom_left,neutral,friendly,0.6095,,,,,,,,,,,,,,,,,
,,,,,049528,m,y,l,n,11,0,2025-04-05_11h30.12.362,VisualSearchFaces,2024.2.4,Win32,60.24096386,,,,,,,,1251.1577,1251.257,1251.257,1253.254,block3,j,1,1,12,52,12,1,1,top_right,friendly,neutral,0.5375,,,,,,,,,,,,,,,,,
,,,,,049528,m,y,l,n,11,0,2025-04-05_11h30.12.362,VisualSearchFaces,2024.2.4,Win32,60.24096386,,,,,,,,1254.254,1254.3558,1254.3558,1256.3447,block3,j,1,1,13,53,17,1,1,top_right,threatening,neutral,0.6228,,,,,,,,,,,,,,,,,
,,,,,049528,m,y,l,n,11,0,2025-04-05_11h30.12.362,VisualSearchFaces,2024.2.4,Win32,60.24096386,,,,,,,,1257.3673,1257.4883,1257.4883,1259.4783,block3,j,1,1,14,54,6,1,1,top_left,neutral,threatening,0.5982,,,,,,,,,,,,,,,,,
,,,,,049528,m,y,l,n,11,0,2025-04-05_11h30.12.362,VisualSearchFaces,2024.2.4,Win32,60.24096386,,,,,,,,1260.494,1260.5909,1260.591,1262.5886,block3,j,1,1,15,55,5,1,1,centre,neutral,threatening,0.5643,,,,,,,,,,,,,,,,,
,,,,,049528,m,y,l,n,11,0,2025-04-05_11h30.12.362,VisualSearchFaces,2024.2.4,Win32,60.24096386,,,,,,,,1263.5905,1263.6883,1263.6884,1265.6925,block3,j,1,1,16,56,16,1,1,top_left,threatening,neutral,0.952,,,,,,,,,,,,,,,,,
,,,,,049528,m,y,l,n,11,0,2025-04-05_11h30.12.362,VisualSearchFaces,2024.2.4,Win32,60.24096386,,,,,,,,1266.698,1266.812,1266.812,1268.8062,block3,j,0,1,17,57,21,1,0,top_left,neutral,no_target,0.8664,,,,,,,,,,,,,,,,,
,,,,,049528,m,y,l,n,11,0,2025-04-05_11h30.12.362,VisualSearchFaces,2024.2.4,Win32,60.24096386,,,,,,,,1269.8138,1269.9186,1269.9186,1271.91,block3,j,1,1,18,58,4,1,1,bottom_right,neutral,friendly,0.5076,,,,,,,,,,,,,,,,,
,,,,,049528,m,y,l,n,11,0,2025-04-05_11h30.12.362,VisualSearchFaces,2024.2.4,Win32,60.24096386,,,,,,,,1272.9174,1273.0274,1273.0275,1275.0158,block3,f,1,1,19,59,26,1,0,top_left,neutral,no_target,0.6232,,,,,,,,,,,,,,,,,
,,,,,049528,m,y,l,n,11,0,2025-04-05_11h30.12.362,VisualSearchFaces,2024.2.4,Win32,60.24096386,,,,,,,,1276.0128,1276.1129,1276.113,1278.0911,block3,j,0,1,20,60,22,1,0,top_right,neutral,no_target,0.7562,,,,,,,,,,,,,,,,,
,,,,,049528,m,y,l,n,11,0,2025-04-05_11h30.12.362,VisualSearchFaces,2024.2.4,Win32,60.24096386,,,,,,,,1279.1149,1279.2282,1279.2282,1281.2324,block3,f,1,1,21,61,34,1,0,bottom_right,friendly,no_target,0.6695,,,,,,,,,,,,,,,,,
,,,,,049528,m,y,l,n,11,0,2025-04-05_11h30.12.362,VisualSearchFaces,2024.2.4,Win32,60.24096386,,,,,,,,1282.2379,1282.3458,1282.3459,1284.3423,block3,j,1,1,22,62,14,1,1,bottom_right,friendly,neutral,0.5268,,,,,,,,,,,,,,,,,
,,,,,049528,m,y,l,n,11,0,2025-04-05_11h30.12.362,VisualSearchFaces,2024.2.4,Win32,60.24096386,,,,,,,,1285.3452,1285.4495,1285.4495,1287.4485,block3,f,1,1,23,63,32,1,0,top_right,friendly,no_target,0.4809,,,,,,,,,,,,,,,,,
,,,,,049528,m,y,l,n,11,0,2025-04-05_11h30.12.362,VisualSearchFaces,2024.2.4,Win32,60.24096386,,,,,,,,1288.4558,1288.5698,1288.5699,1290.5647,block3,j,0,1,24,64,35,1,0,centre,threatening,no_target,0.635,,,,,,,,,,,,,,,,,
,,,,,049528,m,y,l,n,11,0,2025-04-05_11h30.12.362,VisualSearchFaces,2024.2.4,Win32,60.24096386,,,,,,,,1291.5786,1291.6793,1291.6794,1293.6766,block3,j,0,1,25,65,39,1,0,bottom_right,threatening,no_target,0.5724,,,,,,,,,,,,,,,,,
,,,,,049528,m,y,l,n,11,0,2025-04-05_11h30.12.362,VisualSearchFaces,2024.2.4,Win32,60.24096386,,,,,,,,1294.6777,1294.7832,1294.7832,1296.7716,block3,f,0,1,26,66,19,1,1,bottom_right,threatening,neutral,0.543,,,,,,,,,,,,,,,,,
,,,,,049528,m,y,l,n,11,0,2025-04-05_11h30.12.362,VisualSearchFaces,2024.2.4,Win32,60.24096386,,,,,,,,1297.7917,1297.8936,1297.8938,1299.9022,block3,f,0,1,27,67,15,1,1,centre,threatening,neutral,0.4568,,,,,,,,,,,,,,,,,
,,,,,049528,m,y,l,n,11,0,2025-04-05_11h30.12.362,VisualSearchFaces,2024.2.4,Win32,60.24096386,,,,,,,,1300.9006,1301.0143,1301.0144,1303.0091,block3,j,1,1,28,68,18,1,1,bottom_left,threatening,neutral,0.6247,,,,,,,,,,,,,,,,,
,,,,,049528,m,y,l,n,11,0,2025-04-05_11h30.12.362,VisualSearchFaces,2024.2.4,Win32,60.24096386,,,,,,,,1304.026,1304.1305,1304.1305,1306.1206,block3,f,1,1,29,69,24,1,0,bottom_right,neutral,no_target,0.6585,,,,,,,,,,,,,,,,,
,,,,,049528,m,y,l,n,11,0,2025-04-05_11h30.12.362,VisualSearchFaces,2024.2.4,Win32,60.24096386,,,,,,,,1307.1271,1307.2381,1307.2382,1309.2292,block3,j,1,1,30,70,11,1,1,top_left,friendly,neutral,0.6259,,,,,,,,,,,,,,,,,
,,,,,049528,m,y,l,n,11,0,2025-04-05_11h30.12.362,VisualSearchFaces,2024.2.4,Win32,60.24096386,,,,,,,,1310.2375,1310.3506,1310.3506,1312.3443,block3,f,1,1,31,71,27,1,0,top_right,neutral,no_target,0.5165,,,,,,,,,,,,,,,,,
,,,,,049528,m,y,l,n,11,0,2025-04-05_11h30.12.362,VisualSearchFaces,2024.2.4,Win32,60.24096386,,,,,,,,1313.3584,1313.4586,1313.4587,1315.4638,block3,f,1,1,32,72,20,1,0,centre,neutral,no_target,0.4595,,,,,,,,,,,,,,,,,
,,,,,049528,m,y,l,n,11,0,2025-04-05_11h30.12.362,VisualSearchFaces,2024.2.4,Win32,60.24096386,,,,,,,,1316.4418,1316.5523,1316.5524,1318.536,block3,j,0,1,33,73,31,1,0,top_left,friendly,no_target,0.5412,,,,,,,,,,,,,,,,,
,,,,,049528,m,y,l,n,11,0,2025-04-05_11h30.12.362,VisualSearchFaces,2024.2.4,Win32,60.24096386,,,,,,,,1319.5594,1319.6673,1319.6673,1321.6661,block3,j,1,1,34,74,13,1,1,bottom_left,friendly,neutral,0.5913,,,,,,,,,,,,,,,,,
,,,,,049528,m,y,l,n,11,0,2025-04-05_11h30.12.362,VisualSearchFaces,2024.2.4,Win32,60.24096386,,,,,,,,1322.6672,1322.7746,1322.7747,1324.773,block3,f,0,1,35,75,10,1,1,centre,friendly,neutral,0.5561,,,,,,,,,,,,,,,,,
,,,,,049528,m,y,l,n,11,0,2025-04-05_11h30.12.362,VisualSearchFaces,2024.2.4,Win32,60.24096386,,,,,,,,1325.7719,1325.8816,1325.8817,1327.872,block3,j,1,1,36,76,9,1,1,bottom_right,neutral,threatening,0.5425,,,,,,,,,,,,,,,,,
,,,,,049528,m,y,l,n,11,0,2025-04-05_11h30.12.362,VisualSearchFaces,2024.2.4,Win32,60.24096386,,,,,,,,1328.8732,1328.979,1328.979,1330.9695,block3,f,1,1,37,77,28,1,0,bottom_left,neutral,no_target,0.4759,,,,,,,,,,,,,,,,,
,,,,,049528,m,y,l,n,11,0,2025-04-05_11h30.12.362,VisualSearchFaces,2024.2.4,Win32,60.24096386,,,,,,,,1331.9898,1332.1078,1332.1079,1334.0841,block3,j,0,1,38,78,36,1,0,top_left,threatening,no_target,0.6102,,,,,,,,,,,,,,,,,
,,,,,049528,m,y,l,n,11,0,2025-04-05_11h30.12.362,VisualSearchFaces,2024.2.4,Win32,60.24096386,,,,,,,,1335.1045,1335.2188,1335.2188,1337.2067,block3,f,1,1,39,79,29,1,0,bottom_right,neutral,no_target,0.5637,,,,,,,,,,,,,,,,,
,,,,,049528,m,y,l,n,11,0,2025-04-05_11h30.12.362,VisualSearchFaces,2024.2.4,Win32,60.24096386,,,1344.8564,1346.2879,space,1.35,,1347.303,1347.4174,1347.4174,1349.4058,block4,j,0,0,0,0,30,1,0,centre,friendly,no_target,0.7983,,1337.2126,1344.8487,space,7.5964,,,,,,,,,,,,
,,,,,049528,m,y,l,n,11,0,2025-04-05_11h30.12.362,VisualSearchFaces,2024.2.4,Win32,60.24096386,,,,,,,,1350.4232,1350.5301,1350.5303,1352.519,block4,j,1,0,1,1,11,1,1,top_left,friendly,neutral,0.3808,,,,,,,,,,,,,,,,,
,,,,,049528,m,y,l,n,11,0,2025-04-05_11h30.12.362,VisualSearchFaces,2024.2.4,Win32,60.24096386,,,,,,,,1353.5322,1353.6367,1353.6368,1355.6316,block4,j,1,0,2,2,16,1,1,top_left,threatening,neutral,0.5795,,,,,,,,,,,,,,,,,
,,,,,049528,m,y,l,n,11,0,2025-04-05_11h30.12.362,VisualSearchFaces,2024.2.4,Win32,60.24096386,,,,,,,,1356.6465,1356.7534,1356.7535,1358.7506,block4,f,1,0,3,3,35,1,0,centre,threatening,no_target,0.8444,,,,,,,,,,,,,,,,,
,,,,,049528,m,y,l,n,11,0,2025-04-05_11h30.12.362,VisualSearchFaces,2024.2.4,Win32,60.24096386,,,,,,,,1359.7489,1359.8647,1359.8647,1361.8492,block4,j,1,0,4,4,7,1,1,top_right,neutral,threatening,0.6234,,,,,,,,,,,,,,,,,
,,,,,049528,m,y,l,n,11,0,2025-04-05_11h30.12.362,VisualSearchFaces,2024.2.4,Win32,60.24096386,,,,,,,,1362.8703,1362.9864,1362.9865,1364.9749,block4,f,0,0,5,5,19,1,1,bottom_right,threatening,neutral,0.6717,,,,,,,,,,,,,,,,,
,,,,,049528,m,y,l,n,11,0,2025-04-05_11h30.12.362,VisualSearchFaces,2024.2.4,Win32,60.24096386,,,,,,,,1365.9853,1366.0957,1366.0957,1368.0893,block4,j,1,0,6,6,0,1,1,centre,neutral,friendly,0.6626,,,,,,,,,,,,,,,,,
,,,,,049528,m,y,l,n,11,0,2025-04-05_11h30.12.362,VisualSearchFaces,2024.2.4,Win32,60.24096386,,,,,,,,1369.1147,1369.2235,1369.2235,1371.2222,block4,f,1,0,7,7,39,1,0,bottom_right,threatening,no_target,0.7883,,,,,,,,,,,,,,,,,
,,,,,049528,m,y,l,n,11,0,2025-04-05_11h30.12.362,VisualSearchFaces,2024.2.4,Win32,60.24096386,,,,,,,,1372.2187,1372.3292,1372.3293,1374.3231,block4,j,1,0,8,8,4,1,1,bottom_right,neutral,friendly,0.6307,,,,,,,,,,,,,,,,,
,,,,,049528,m,y,l,n,11,0,2025-04-05_11h30.12.362,VisualSearchFaces,2024.2.4,Win32,60.24096386,,,,,,,,1375.3234,1375.4473,1375.4474,1377.4372,block4,f,1,0,9,9,37,1,0,top_right,threatening,no_target,0.8025,,,,,,,,,,,,,,,,,
,,,,,049528,m,y,l,n,11,0,2025-04-05_11h30.12.362,VisualSearchFaces,2024.2.4,Win32,60.24096386,,,,,,,,1378.4534,1378.5662,1378.5662,1380.556,block4,f,1,0,10,10,32,1,0,top_right,friendly,no_target,0.7456,,,,,,,,,,,,,,,,,
,,,,,049528,m,y,l,n,11,0,2025-04-05_11h30.12.362,VisualSearchFaces,2024.2.4,Win32,60.24096386,,,,,,,,1381.5702,1381.6868,1381.6868,1383.6765,block4,j,1,0,11,11,9,1,1,bottom_right,neutral,threatening,0.6528,,,,,,,,,,,,,,,,,
,,,,,049528,m,y,l,n,11,0,2025-04-05_11h30.12.362,VisualSearchFaces,2024.2.4,Win32,60.24096386,,,,,,,,1384.6825,1384.7879,1384.7879,1386.7862,block4,f,1,0,12,12,23,1,0,bottom_left,neutral,no_target,0.4771,,,,,,,,,,,,,,,,,
,,,,,049528,m,y,l,n,11,0,2025-04-05_11h30.12.362,VisualSearchFaces,2024.2.4,Win32,60.24096386,,,,,,,,1387.7832,1387.8953,1387.8954,1389.8776,block4,f,0,0,13,13,13,1,1,bottom_left,friendly,neutral,0.569,,,,,,,,,,,,,,,,,
,,,,,049528,m,y,l,n,11,0,2025-04-05_11h30.12.362,VisualSearchFaces,2024.2.4,Win32,60.24096386,,,,,,,,1390.9005,1391.0114,1391.0115,1393.0077,block4,j,1,0,14,14,2,1,1,top_right,neutral,friendly,0.7117,,,,,,,,,,,,,,,,,
,,,,,049528,m,y,l,n,11,0,2025-04-05_11h30.12.362,VisualSearchFaces,2024.2.4,Win32,60.24096386,,,,,,,,1394.0068,1394.1121,1394.1123,1396.1079,block4,f,1,0,15,15,20,1,0,centre,neutral,no_target,0.4715,,,,,,,,,,,,,,,,,
,,,,,049528,m,y,l,n,11,0,2025-04-05_11h30.12.362,VisualSearchFaces,2024.2.4,Win32,60.24096386,,,,,,,,1397.1162,1397.2152,1397.2153,1399.2086,block4,f,1,0,16,16,22,1,0,top_right,neutral,no_target,0.588,,,,,,,,,,,,,,,,,
,,,,,049528,m,y,l,n,11,0,2025-04-05_11h30.12.362,VisualSearchFaces,2024.2.4,Win32,60.24096386,,,,,,,,1400.2148,1400.3149,1400.315,1402.3094,block4,f,1,0,17,17,26,1,0,top_left,neutral,no_target,0.4466,,,,,,,,,,,,,,,,,
,,,,,049528,m,y,l,n,11,0,2025-04-05_11h30.12.362,VisualSearchFaces,2024.2.4,Win32,60.24096386,,,,,,,,1403.3122,1403.4169,1403.4169,1405.4129,block4,j,1,0,18,18,3,1,1,bottom_left,neutral,friendly,0.5154,,,,,,,,,,,,,,,,,
,,,,,049528,m,y,l,n,11,0,2025-04-05_11h30.12.362,VisualSearchFaces,2024.2.4,Win32,60.24096386,,,,,,,,1406.4136,1406.5292,1406.5292,1408.5286,block4,f,1,0,19,19,36,1,0,top_left,threatening,no_target,0.5549,,,,,,,,,,,,,,,,,
,,,,,049528,m,y,l,n,11,0,2025-04-05_11h30.12.362,VisualSearchFaces,2024.2.4,Win32,60.24096386,,,,,,,,1409.5299,1409.6367,1409.6368,1411.6265,block4,f,0,0,20,20,1,1,1,top_left,neutral,friendly,0.4029,,,,,,,,,,,,,,,,,
,,,,,049528,m,y,l,n,11,0,2025-04-05_11h30.12.362,VisualSearchFaces,2024.2.4,Win32,60.24096386,,,,,,,,1412.6396,1412.7501,1412.7501,1414.7518,block4,j,1,0,21,21,17,1,1,top_right,threatening,neutral,0.8246,,,,,,,,,,,,,,,,,
,,,,,049528,m,y,l,n,11,0,2025-04-05_11h30.12.362,VisualSearchFaces,2024.2.4,Win32,60.24096386,,,,,,,,1415.7443,1415.8536,1415.8536,1417.8218,block4,f,1,0,22,22,29,1,0,bottom_right,neutral,no_target,0.5364,,,,,,,,,,,,,,,,,
,,,,,049528,m,y,l,n,11,0,2025-04-05_11h30.12.362,VisualSearchFaces,2024.2.4,Win32,60.24096386,,,,,,,,1418.8544,1418.9728,1418.9728,1420.9568,block4,j,1,0,23,23,18,1,1,bottom_left,threatening,neutral,0.8788,,,,,,,,,,,,,,,,,
,,,,,049528,m,y,l,n,11,0,2025-04-05_11h30.12.362,VisualSearchFaces,2024.2.4,Win32,60.24096386,,,,,,,,1421.965,1422.0702,1422.0702,1424.0564,block4,j,1,0,24,24,10,1,1,centre,friendly,neutral,0.6136,,,,,,,,,,,,,,,,,
,,,,,049528,m,y,l,n,11,0,2025-04-05_11h30.12.362,VisualSearchFaces,2024.2.4,Win32,60.24096386,,,,,,,,1425.0616,1425.1734,1425.1734,1427.1631,block4,j,1,0,25,25,5,1,1,centre,neutral,threatening,1.1801,,,,,,,,,,,,,,,,,
,,,,,049528,m,y,l,n,11,0,2025-04-05_11h30.12.362,VisualSearchFaces,2024.2.4,Win32,60.24096386,,,,,,,,1428.1721,1428.2845,1428.2845,1430.2789,block4,j,1,0,26,26,15,1,1,centre,threatening,neutral,0.7466,,,,,,,,,,,,,,,,,
,,,,,049528,m,y,l,n,11,0,2025-04-05_11h30.12.362,VisualSearchFaces,2024.2.4,Win32,60.24096386,,,,,,,,1431.2812,1431.3985,1431.3986,1433.4026,block4,f,1,0,27,27,24,1,0,bottom_right,neutral,no_target,0.5771,,,,,,,,,,,,,,,,,
,,,,,049528,m,y,l,n,11,0,2025-04-05_11h30.12.362,VisualSearchFaces,2024.2.4,Win32,60.24096386,,,,,,,,1434.3949,1434.4958,1434.4959,1436.4732,block4,j,0,0,28,28,31,1,0,top_left,friendly,no_target,0.7142,,,,,,,,,,,,,,,,,
,,,,,049528,m,y,l,n,11,0,2025-04-05_11h30.12.362,VisualSearchFaces,2024.2.4,Win32,60.24096386,,,,,,,,1437.4997,1437.5963,1437.5965,1439.5969,block4,f,1,0,29,29,33,1,0,bottom_left,friendly,no_target,0.744,,,,,,,,,,,,,,,,,
,,,,,049528,m,y,l,n,11,0,2025-04-05_11h30.12.362,VisualSearchFaces,2024.2.4,Win32,60.24096386,,,,,,,,1440.5911,1440.6928,1440.6929,1442.6857,block4,f,1,0,30,30,34,1,0,bottom_right,friendly,no_target,0.7012,,,,,,,,,,,,,,,,,
,,,,,049528,m,y,l,n,11,0,2025-04-05_11h30.12.362,VisualSearchFaces,2024.2.4,Win32,60.24096386,,,,,,,,1443.6943,1443.7988,1443.7989,1445.7936,block4,j,1,0,31,31,14,1,1,bottom_right,friendly,neutral,0.6088,,,,,,,,,,,,,,,,,
,,,,,049528,m,y,l,n,11,0,2025-04-05_11h30.12.362,VisualSearchFaces,2024.2.4,Win32,60.24096386,,,,,,,,1446.7929,1446.9043,1446.9043,1448.894,block4,j,1,0,32,32,8,1,1,bottom_left,neutral,threatening,0.6796,,,,,,,,,,,,,,,,,
,,,,,049528,m,y,l,n,11,0,2025-04-05_11h30.12.362,VisualSearchFaces,2024.2.4,Win32,60.24096386,,,,,,,,1449.9033,1449.9964,1449.9964,1451.992,block4,f,1,0,33,33,25,1,0,centre,neutral,no_target,0.757,,,,,,,,,,,,,,,,,
,,,,,049528,m,y,l,n,11,0,2025-04-05_11h30.12.362,VisualSearchFaces,2024.2.4,Win32,60.24096386,,,,,,,,1453.0075,1453.11,1453.1101,1455.109,block4,j,1,0,34,34,6,1,1,top_left,neutral,threatening,0.4405,,,,,,,,,,,,,,,,,
,,,,,049528,m,y,l,n,11,0,2025-04-05_11h30.12.362,VisualSearchFaces,2024.2.4,Win32,60.24096386,,,,,,,,1456.1031,1456.198,1456.1982,1458.1876,block4,f,1,0,35,35,28,1,0,bottom_left,neutral,no_target,0.4514,,,,,,,,,,,,,,,,,
,,,,,049528,m,y,l,n,11,0,2025-04-05_11h30.12.362,VisualSearchFaces,2024.2.4,Win32,60.24096386,,,,,,,,1459.195,1459.3182,1459.3183,1461.3078,block4,j,1,0,36,36,12,1,1,top_right,friendly,neutral,0.5857,,,,,,,,,,,,,,,,,
,,,,,049528,m,y,l,n,11,0,2025-04-05_11h30.12.362,VisualSearchFaces,2024.2.4,Win32,60.24096386,,,,,,,,1462.3131,1462.4375,1462.4376,1464.4267,block4,j,0,0,37,37,38,1,0,bottom_left,threatening,no_target,0.5999,,,,,,,,,,,,,,,,,
,,,,,049528,m,y,l,n,11,0,2025-04-05_11h30.12.362,VisualSearchFaces,2024.2.4,Win32,60.24096386,,,,,,,,1465.4402,1465.5549,1465.5549,1467.5576,block4,f,1,0,38,38,21,1,0,top_left,neutral,no_target,0.7076,,,,,,,,,,,,,,,,,
,,,,,049528,m,y,l,n,11,0,2025-04-05_11h30.12.362,VisualSearchFaces,2024.2.4,Win32,60.24096386,,,,,,,,1468.556,1468.6564,1468.6565,1470.6461,block4,f,1,0,39,39,27,1,0,top_right,neutral,no_target,0.573,,,,,,,,,,,,,,,,,
,,,,,049528,m,y,l,n,11,0,2025-04-05_11h30.12.362,VisualSearchFaces,2024.2.4,Win32,60.24096386,,,,,,,,1471.6665,1471.7788,1471.779,1473.7683,block4,j,1,1,0,40,9,1,1,bottom_right,neutral,threatening,0.5513,,,,,,,,,,,,,,,,,
,,,,,049528,m,y,l,n,11,0,2025-04-05_11h30.12.362,VisualSearchFaces,2024.2.4,Win32,60.24096386,,,,,,,,1474.7763,1474.894,1474.894,1476.8928,block4,f,0,1,1,41,13,1,1,bottom_left,friendly,neutral,0.699,,,,,,,,,,,,,,,,,
,,,,,049528,m,y,l,n,11,0,2025-04-05_11h30.12.362,VisualSearchFaces,2024.2.4,Win32,60.24096386,,,,,,,,1477.8909,1478.008,1478.0081,1480.0086,block4,j,1,1,2,42,1,1,1,top_left,neutral,friendly,0.6811,,,,,,,,,,,,,,,,,
,,,,,049528,m,y,l,n,11,0,2025-04-05_11h30.12.362,VisualSearchFaces,2024.2.4,Win32,60.24096386,,,,,,,,1481.0198,1481.1327,1481.1327,1483.1273,block4,j,1,1,3,43,11,1,1,top_left,friendly,neutral,0.7449,,,,,,,,,,,,,,,,,
,,,,,049528,m,y,l,n,11,0,2025-04-05_11h30.12.362,VisualSearchFaces,2024.2.4,Win32,60.24096386,,,,,,,,1484.1344,1484.2537,1484.2538,1486.2591,block4,f,1,1,4,44,22,1,0,top_right,neutral,no_target,0.7707,,,,,,,,,,,,,,,,,
,,,,,049528,m,y,l,n,11,0,2025-04-05_11h30.12.362,VisualSearchFaces,2024.2.4,Win32,60.24096386,,,,,,,,1487.2626,1487.3546,1487.3548,1489.3582,block4,f,1,1,5,45,27,1,0,top_right,neutral,no_target,0.4819,,,,,,,,,,,,,,,,,
,,,,,049528,m,y,l,n,11,0,2025-04-05_11h30.12.362,VisualSearchFaces,2024.2.4,Win32,60.24096386,,,,,,,,1490.3655,1490.4615,1490.4616,1492.455,block4,j,1,1,6,46,5,1,1,centre,neutral,threatening,0.522,,,,,,,,,,,,,,,,,
,,,,,049528,m,y,l,n,11,0,2025-04-05_11h30.12.362,VisualSearchFaces,2024.2.4,Win32,60.24096386,,,,,,,,1493.4577,1493.5623,1493.5623,1495.5602,block4,f,1,1,7,47,23,1,0,bottom_left,neutral,no_target,0.4369,,,,,,,,,,,,,,,,,
,,,,,049528,m,y,l,n,11,0,2025-04-05_11h30.12.362,VisualSearchFaces,2024.2.4,Win32,60.24096386,,,,,,,,1496.5549,1496.6542,1496.6543,1498.6579,block4,f,1,1,8,48,20,1,0,centre,neutral,no_target,0.5014,,,,,,,,,,,,,,,,,
,,,,,049528,m,y,l,n,11,0,2025-04-05_11h30.12.362,VisualSearchFaces,2024.2.4,Win32,60.24096386,,,,,,,,1499.6665,1499.769,1499.7691,1501.7599,block4,f,1,1,9,49,29,1,0,bottom_right,neutral,no_target,0.5342,,,,,,,,,,,,,,,,,
,,,,,049528,m,y,l,n,11,0,2025-04-05_11h30.12.362,VisualSearchFaces,2024.2.4,Win32,60.24096386,,,,,,,,1502.7689,1502.8876,1502.8877,1504.8772,block4,f,1,1,10,50,34,1,0,bottom_right,friendly,no_target,0.5683,,,,,,,,,,,,,,,,,
,,,,,049528,m,y,l,n,11,0,2025-04-05_11h30.12.362,VisualSearchFaces,2024.2.4,Win32,60.24096386,,,,,,,,1505.8998,1506.0118,1506.0118,1508.013,block4,j,0,1,11,51,38,1,0,bottom_left,threatening,no_target,0.5394,,,,,,,,,,,,,,,,,
,,,,,049528,m,y,l,n,11,0,2025-04-05_11h30.12.362,VisualSearchFaces,2024.2.4,Win32,60.24096386,,,,,,,,1509.0105,1509.132,1509.132,1511.1212,block4,j,1,1,12,52,8,1,1,bottom_left,neutral,threatening,0.59,,,,,,,,,,,,,,,,,
,,,,,049528,m,y,l,n,11,0,2025-04-05_11h30.12.362,VisualSearchFaces,2024.2.4,Win32,60.24096386,,,,,,,,1512.1346,1512.2419,1512.242,1514.231,block4,f,0,1,13,53,10,1,1,centre,friendly,neutral,0.8052,,,,,,,,,,,,,,,,,
,,,,,049528,m,y,l,n,11,0,2025-04-05_11h30.12.362,VisualSearchFaces,2024.2.4,Win32,60.24096386,,,,,,,,1515.2392,1515.3455,1515.3455,1517.338,block4,f,1,1,14,54,31,1,0,top_left,friendly,no_target,0.705,,,,,,,,,,,,,,,,,
,,,,,049528,m,y,l,n,11,0,2025-04-05_11h30.12.362,VisualSearchFaces,2024.2.4,Win32,60.24096386,,,,,,,,1518.3549,1518.462,1518.462,1520.4442,block4,j,1,1,15,55,6,1,1,top_left,neutral,threatening,0.5786,,,,,,,,,,,,,,,,,
,,,,,049528,m,y,l,n,11,0,2025-04-05_11h30.12.362,VisualSearchFaces,2024.2.4,Win32,60.24096386,,,,,,,,1521.4676,1521.5719,1521.5719,1523.5753,block4,j,1,1,16,56,0,1,1,centre,neutral,friendly,0.4383,,,,,,,,,,,,,,,,,
,,,,,049528,m,y,l,n,11,0,2025-04-05_11h30.12.362,VisualSearchFaces,2024.2.4,Win32,60.24096386,,,,,,,,1524.5661,1524.6875,1524.6875,1526.6825,block4,f,0,1,17,57,14,1,1,bottom_right,friendly,neutral,0.7216,,,,,,,,,,,,,,,,,
,,,,,049528,m,y,l,n,11,0,2025-04-05_11h30.12.362,VisualSearchFaces,2024.2.4,Win32,60.24096386,,,,,,,,1527.6827,1527.7914,1527.7914,1529.7876,block4,f,1,1,18,58,26,1,0,top_left,neutral,no_target,0.5566,,,,,,,,,,,,,,,,,
,,,,,049528,m,y,l,n,11,0,2025-04-05_11h30.12.362,VisualSearchFaces,2024.2.4,Win32,60.24096386,,,,,,,,1530.7926,1530.9123,1530.9124,1532.908,block4,f,0,1,19,59,15,1,1,centre,threatening,neutral,0.5949,,,,,,,,,,,,,,,,,
,,,,,049528,m,y,l,n,11,0,2025-04-05_11h30.12.362,VisualSearchFaces,2024.2.4,Win32,60.24096386,,,,,,,,1533.9148,1534.0148,1534.0149,1536.0093,block4,f,0,1,20,60,18,1,1,bottom_left,threatening,neutral,0.5756,,,,,,,,,,,,,,,,,
,,,,,049528,m,y,l,n,11,0,2025-04-05_11h30.12.362,VisualSearchFaces,2024.2.4,Win32,60.24096386,,,,,,,,1537.033,1537.1593,1537.1593,1539.1438,block4,f,1,1,21,61,33,1,0,bottom_left,friendly,no_target,0.5748,,,,,,,,,,,,,,,,,
,,,,,049528,m,y,l,n,11,0,2025-04-05_11h30.12.362,VisualSearchFaces,2024.2.4,Win32,60.24096386,,,,,,,,1540.164,1540.2778,1540.2778,1542.2764,block4,j,1,1,22,62,2,1,1,top_right,neutral,friendly,0.5954,,,,,,,,,,,,,,,,,
,,,,,049528,m,y,l,n,11,0,2025-04-05_11h30.12.362,VisualSearchFaces,2024.2.4,Win32,60.24096386,,,,,,,,1543.2725,1543.385,1543.3851,1545.3773,block4,f,0,1,23,63,19,1,1,bottom_right,threatening,neutral,0.5647,,,,,,,,,,,,,,,,,
,,,,,049528,m,y,l,n,11,0,2025-04-05_11h30.12.362,VisualSearchFaces,2024.2.4,Win32,60.24096386,,,,,,,,1546.3798,1546.4971,1546.4972,1548.4897,block4,f,1,1,24,64,24,1,0,bottom_right,neutral,no_target,0.6828,,,,,,,,,,,,,,,,,
,,,,,049528,m,y,l,n,11,0,2025-04-05_11h30.12.362,VisualSearchFaces,2024.2.4,Win32,60.24096386,,,,,,,,1549.4975,1549.6077,1549.6078,1551.5904,block4,f,1,1,25,65,39,1,0,bottom_right,threatening,no_target,0.5199,,,,,,,,,,,,,,,,,
,,,,,049528,m,y,l,n,11,0,2025-04-05_11h30.12.362,VisualSearchFaces,2024.2.4,Win32,60.24096386,,,,,,,,1552.612,1552.7233,1552.7233,1554.7134,block4,f,1,1,26,66,30,1,0,centre,friendly,no_target,1.0334,,,,,,,,,,,,,,,,,
,,,,,049528,m,y,l,n,11,0,2025-04-05_11h30.12.362,VisualSearchFaces,2024.2.4,Win32,60.24096386,,,,,,,,1555.7328,1555.839,1555.839,1557.832,block4,f,1,1,27,67,37,1,0,top_right,threatening,no_target,0.5908,,,,,,,,,,,,,,,,,
,,,,,049528,m,y,l,n,11,0,2025-04-05_11h30.12.362,VisualSearchFaces,2024.2.4,Win32,60.24096386,,,,,,,,1558.8383,1558.945,1558.9451,1560.9392,block4,f,1,1,28,68,35,1,0,centre,threatening,no_target,0.5369,,,,,,,,,,,,,,,,,
,,,,,049528,m,y,l,n,11,0,2025-04-05_11h30.12.362,VisualSearchFaces,2024.2.4,Win32,60.24096386,,,,,,,,1561.9348,1562.087,1562.0871,1564.0743,block4,f,1,1,29,69,32,1,0,top_right,friendly,no_target,0.3956,,,,,,,,,,,,,,,,,
,,,,,049528,m,y,l,n,11,0,2025-04-05_11h30.12.362,VisualSearchFaces,2024.2.4,Win32,60.24096386,,,,,,,,1565.094,1565.2053,1565.2054,1567.1887,block4,j,1,1,30,70,7,1,1,top_right,neutral,threatening,0.5667,,,,,,,,,,,,,,,,,
,,,,,049528,m,y,l,n,11,0,2025-04-05_11h30.12.362,VisualSearchFaces,2024.2.4,Win32,60.24096386,,,,,,,,1568.2205,1568.3245,1568.3246,1570.3147,block4,j,1,1,31,71,4,1,1,bottom_right,neutral,friendly,0.5903,,,,,,,,,,,,,,,,,
,,,,,049528,m,y,l,n,11,0,2025-04-05_11h30.12.362,VisualSearchFaces,2024.2.4,Win32,60.24096386,,,,,,,,1571.3286,1571.4384,1571.4385,1573.4273,block4,f,1,1,32,72,25,1,0,centre,neutral,no_target,0.5696,,,,,,,,,,,,,,,,,
,,,,,049528,m,y,l,n,11,0,2025-04-05_11h30.12.362,VisualSearchFaces,2024.2.4,Win32,60.24096386,,,,,,,,1574.4406,1574.5433,1574.5433,1576.5237,block4,f,1,1,33,73,21,1,0,top_left,neutral,no_target,0.5349,,,,,,,,,,,,,,,,,
,,,,,049528,m,y,l,n,11,0,2025-04-05_11h30.12.362,VisualSearchFaces,2024.2.4,Win32,60.24096386,,,,,,,,1577.5381,1577.6438,1577.6438,1579.6449,block4,f,1,1,34,74,36,1,0,top_left,threatening,no_target,0.5857,,,,,,,,,,,,,,,,,
,,,,,049528,m,y,l,n,11,0,2025-04-05_11h30.12.362,VisualSearchFaces,2024.2.4,Win32,60.24096386,,,,,,,,1580.6484,1580.7666,1580.7666,1582.7645,block4,f,0,1,35,75,12,1,1,top_right,friendly,neutral,0.4515,,,,,,,,,,,,,,,,,
,,,,,049528,m,y,l,n,11,0,2025-04-05_11h30.12.362,VisualSearchFaces,2024.2.4,Win32,60.24096386,,,,,,,,1583.7612,1583.8589,1583.8589,1585.848,block4,j,1,1,36,76,17,1,1,top_right,threatening,neutral,0.8085,,,,,,,,,,,,,,,,,
,,,,,049528,m,y,l,n,11,0,2025-04-05_11h30.12.362,VisualSearchFaces,2024.2.4,Win32,60.24096386,,,,,,,,1586.8438,1586.9632,1586.9634,1588.9586,block4,f,1,1,37,77,28,1,0,bottom_left,neutral,no_target,0.6571,,,,,,,,,,,,,,,,,
,,,,,049528,m,y,l,n,11,0,2025-04-05_11h30.12.362,VisualSearchFaces,2024.2.4,Win32,60.24096386,,,,,,,,1589.9684,1590.0805,1590.0806,1592.0881,block4,j,1,1,38,78,16,1,1,top_left,threatening,neutral,0.721,,,,,,,,,,,,,,,,,
,,,,,049528,m,y,l,n,11,0,2025-04-05_11h30.12.362,VisualSearchFaces,2024.2.4,Win32,60.24096386,,,,,,,,1593.0928,1593.2033,1593.2034,1595.206,block4,j,1,1,39,79,3,1,1,bottom_left,neutral,friendly,0.8842,,,,,,,,,,,,,,,,,
,,,,,049528,m,y,l,n,11,0,2025-04-05_11h30.12.362,VisualSearchFaces,2024.2.4,Win32,60.24096386,,,,,,,,,,,,,,,,,,,,,,,,,,1595.2132,1603.9003,space,8.6405,,1603.9042,1642.4935,"The itms were faces with negative emotions. Some were amgry., some scared",1,[1642.491300000012],[1642.491300000012],,,,,
,,,,,049528,m,y,l,n,11,0,2025-04-05_11h30.12.362,VisualSearchFaces,2024.2.4,Win32,60.24096386,,,,,,,,,,,,,,,,,,,,,,,,,,,,,,,,,,,,,1642.4993,1644.2209,space,1.6754,
