Welcome.started,Welcome.stopped,keyboard_space_welcome.keys,keyboard_space_welcome.rt,keyboard_space_welcome.duration,participant,gender,(corrected) normal vision,handedness,exp vse,session,skip_intro,date,expName,psychopyVersion,OS,frameRate,stimulus_exposure.started,stimulus_exposure.stopped,Block_intro.started,Block_intro.stopped,keyboard_space.keys,keyboard_space.rt,keyboard_space.duration,Stimulus.started,Stimulus.stopped,fixation_ending.started,fixation_ending.stopped,block_id,keyboard_response.keys,keyboard_response.corr,keyboard_response.rt,keyboard_response.duration,trials.thisRepN,trials.thisTrialN,trials.thisN,trials.thisIndex,trials.ran,target_presence,target_position,background_emotion,target_emotion,Block_outro.started,Block_outro.stopped,keyboard_space_end.keys,keyboard_space_end.rt,keyboard_space_end.duration,Question_about_stimulus.started,Question_about_stimulus.stopped,textbox_response.text,button.numClicks,button.timesOn,button.timesOff,Thanks.started,Thanks.stopped,keyboard_space_goodbye.keys,keyboard_space_goodbye.rt,keyboard_space_goodbye.duration
0.0002,48.0872,space,48.0753,,070923,f,y,r,n,13,0,2025-04-04_13h13.06.137,VisualSearchFaces,2024.2.4,MacIntel,121.9512195,,,,,,,,,,,,,,,,,,,,,,,,,,,,,,,,,,,,,,,,,
,,,,,070923,f,y,r,n,13,0,2025-04-04_13h13.06.137,VisualSearchFaces,2024.2.4,MacIntel,121.9512195,69.1554,72.1614,72.169,115.5794,space,43.3948,,116.5814,116.8367,116.8369,118.8369,practice1,f,1,1.5498,,0,0,0,20,1,0,centre,neutral,no_target,,,,,,,,,,,,,,,,
,,,,,070923,f,y,r,n,13,0,2025-04-04_13h13.06.137,VisualSearchFaces,2024.2.4,MacIntel,121.9512195,,,,,,,,119.8386,120.0951,120.0952,122.0949,practice1,f,1,0.4754,,0,1,1,25,1,0,centre,neutral,no_target,,,,,,,,,,,,,,,,
,,,,,070923,f,y,r,n,13,0,2025-04-04_13h13.06.137,VisualSearchFaces,2024.2.4,MacIntel,121.9512195,,,,,,,,123.0976,123.3534,123.3535,125.3535,practice1,j,1,0.372,,0,2,2,17,1,1,top_right,threatening,neutral,,,,,,,,,,,,,,,,
,,,,,070923,f,y,r,n,13,0,2025-04-04_13h13.06.137,VisualSearchFaces,2024.2.4,MacIntel,121.9512195,,,,,,,,126.3554,126.6119,126.6121,128.6118,practice1,j,1,0.2846,,0,3,3,5,1,1,centre,neutral,threatening,,,,,,,,,,,,,,,,
,,,,,070923,f,y,r,n,13,0,2025-04-04_13h13.06.137,VisualSearchFaces,2024.2.4,MacIntel,121.9512195,,,,,,,,129.6142,129.87,129.8701,131.8702,practice1,j,1,0.2079,,0,4,4,8,1,1,bottom_left,neutral,threatening,,,,,,,,,,,,,,,,
,,,,,070923,f,y,r,n,13,0,2025-04-04_13h13.06.137,VisualSearchFaces,2024.2.4,MacIntel,121.9512195,,,,,,,,132.8713,133.1286,133.1287,135.1283,practice1,f,0,0.191,,0,5,5,18,1,1,bottom_left,threatening,neutral,,,,,,,,,,,,,,,,
,,,,,070923,f,y,r,n,13,0,2025-04-04_13h13.06.137,VisualSearchFaces,2024.2.4,MacIntel,121.9512195,,,,,,,,136.1289,136.3781,136.3782,138.3782,practice1,j,1,0.4797,,0,6,6,9,1,1,bottom_right,neutral,threatening,,,,,,,,,,,,,,,,
,,,,,070923,f,y,r,n,13,0,2025-04-04_13h13.06.137,VisualSearchFaces,2024.2.4,MacIntel,121.9512195,,,,,,,,139.3809,139.6357,139.6358,141.6365,practice1,j,1,0.2847,,0,7,7,1,1,1,top_left,neutral,friendly,,,,,,,,,,,,,,,,
,,,,,070923,f,y,r,n,13,0,2025-04-04_13h13.06.137,VisualSearchFaces,2024.2.4,MacIntel,121.9512195,,,,,,,,142.6381,142.8949,142.8949,144.8951,practice1,j,1,0.1768,,0,8,8,19,1,1,bottom_right,threatening,neutral,,,,,,,,,,,,,,,,
,,,,,070923,f,y,r,n,13,0,2025-04-04_13h13.06.137,VisualSearchFaces,2024.2.4,MacIntel,121.9512195,,,,,,,,145.8963,146.1534,146.1534,148.1533,practice1,j,0,0.2504,,0,9,9,34,1,0,bottom_right,friendly,no_target,,,,,,,,,,,,,,,,
,,,,,070923,f,y,r,n,13,0,2025-04-04_13h13.06.137,VisualSearchFaces,2024.2.4,MacIntel,121.9512195,,,,,,,,149.1557,149.4117,149.4117,151.4117,practice1,j,1,0.3195,,0,10,10,14,1,1,bottom_right,friendly,neutral,,,,,,,,,,,,,,,,
,,,,,070923,f,y,r,n,13,0,2025-04-04_13h13.06.137,VisualSearchFaces,2024.2.4,MacIntel,121.9512195,,,,,,,,152.4128,152.6699,152.67,154.67,practice1,f,1,0.5582,,0,11,11,39,1,0,bottom_right,threatening,no_target,,,,,,,,,,,,,,,,
,,,,,070923,f,y,r,n,13,0,2025-04-04_13h13.06.137,VisualSearchFaces,2024.2.4,MacIntel,121.9512195,,,,,,,,155.6714,155.9283,155.9284,157.9284,practice1,f,1,0.8878,,0,12,12,31,1,0,top_left,friendly,no_target,,,,,,,,,,,,,,,,
,,,,,070923,f,y,r,n,13,0,2025-04-04_13h13.06.137,VisualSearchFaces,2024.2.4,MacIntel,121.9512195,,,,,,,,158.9297,159.1867,159.1867,161.1858,practice1,f,1,0.4339,,0,13,13,36,1,0,top_left,threatening,no_target,,,,,,,,,,,,,,,,
,,,,,070923,f,y,r,n,13,0,2025-04-04_13h13.06.137,VisualSearchFaces,2024.2.4,MacIntel,121.9512195,,,,,,,,162.1881,162.4449,162.4451,164.4449,practice1,f,1,0.3176,,0,14,14,26,1,0,top_left,neutral,no_target,,,,,,,,,,,,,,,,
,,,,,070923,f,y,r,n,13,0,2025-04-04_13h13.06.137,VisualSearchFaces,2024.2.4,MacIntel,121.9512195,,,,,,,,165.4459,165.7033,165.7035,167.7035,practice1,j,1,0.3169,,0,15,15,3,1,1,bottom_left,neutral,friendly,,,,,,,,,,,,,,,,
,,,,,070923,f,y,r,n,13,0,2025-04-04_13h13.06.137,VisualSearchFaces,2024.2.4,MacIntel,121.9512195,,,,,,,,168.7043,168.9534,168.9535,170.9525,practice1,j,1,0.2176,,0,16,16,15,1,1,centre,threatening,neutral,,,,,,,,,,,,,,,,
,,,,,070923,f,y,r,n,13,0,2025-04-04_13h13.06.137,VisualSearchFaces,2024.2.4,MacIntel,121.9512195,,,,,,,,171.9549,172.2117,172.2117,174.2115,practice1,f,1,0.4922,,0,17,17,22,1,0,top_right,neutral,no_target,,,,,,,,,,,,,,,,
,,,,,070923,f,y,r,n,13,0,2025-04-04_13h13.06.137,VisualSearchFaces,2024.2.4,MacIntel,121.9512195,,,,,,,,175.2137,175.4698,175.4698,177.47,practice1,f,1,0.8082,,0,18,18,33,1,0,bottom_left,friendly,no_target,,,,,,,,,,,,,,,,
,,,,,070923,f,y,r,n,13,0,2025-04-04_13h13.06.137,VisualSearchFaces,2024.2.4,MacIntel,121.9512195,,,,,,,,178.4717,178.7274,178.7275,180.7277,practice1,f,1,0.3349,,0,19,19,35,1,0,centre,threatening,no_target,,,,,,,,,,,,,,,,
,,,,,070923,f,y,r,n,13,0,2025-04-04_13h13.06.137,VisualSearchFaces,2024.2.4,MacIntel,121.9512195,,,,,,,,181.7294,181.9781,181.9782,183.9782,practice1,f,0,0.4346,,0,20,20,12,1,1,top_right,friendly,neutral,,,,,,,,,,,,,,,,
,,,,,070923,f,y,r,n,13,0,2025-04-04_13h13.06.137,VisualSearchFaces,2024.2.4,MacIntel,121.9512195,,,,,,,,184.9796,185.2283,185.2284,187.2282,practice1,j,1,0.4212,,0,21,21,11,1,1,top_left,friendly,neutral,,,,,,,,,,,,,,,,
,,,,,070923,f,y,r,n,13,0,2025-04-04_13h13.06.137,VisualSearchFaces,2024.2.4,MacIntel,121.9512195,,,,,,,,188.2288,188.4782,188.4783,190.4783,practice1,j,1,0.317,,0,22,22,16,1,1,top_left,threatening,neutral,,,,,,,,,,,,,,,,
,,,,,070923,f,y,r,n,13,0,2025-04-04_13h13.06.137,VisualSearchFaces,2024.2.4,MacIntel,121.9512195,,,,,,,,191.4794,191.7366,191.7367,193.7365,practice1,f,1,0.4365,,0,23,23,27,1,0,top_right,neutral,no_target,,,,,,,,,,,,,,,,
,,,,,070923,f,y,r,n,13,0,2025-04-04_13h13.06.137,VisualSearchFaces,2024.2.4,MacIntel,121.9512195,,,,,,,,194.739,194.9949,194.9951,196.9947,practice1,j,1,0.225,,0,24,24,2,1,1,top_right,neutral,friendly,,,,,,,,,,,,,,,,
,,,,,070923,f,y,r,n,13,0,2025-04-04_13h13.06.137,VisualSearchFaces,2024.2.4,MacIntel,121.9512195,,,,,,,,197.9963,198.2448,198.2449,200.2448,practice1,f,1,0.5328,,0,25,25,32,1,0,top_right,friendly,no_target,,,,,,,,,,,,,,,,
,,,,,070923,f,y,r,n,13,0,2025-04-04_13h13.06.137,VisualSearchFaces,2024.2.4,MacIntel,121.9512195,,,,,,,,201.2472,201.5032,201.5033,203.5032,practice1,f,1,0.4254,,0,26,26,29,1,0,bottom_right,neutral,no_target,,,,,,,,,,,,,,,,
,,,,,070923,f,y,r,n,13,0,2025-04-04_13h13.06.137,VisualSearchFaces,2024.2.4,MacIntel,121.9512195,,,,,,,,204.5048,204.7605,204.7606,206.7614,practice1,f,1,0.2926,,0,27,27,28,1,0,bottom_left,neutral,no_target,,,,,,,,,,,,,,,,
,,,,,070923,f,y,r,n,13,0,2025-04-04_13h13.06.137,VisualSearchFaces,2024.2.4,MacIntel,121.9512195,,,,,,,,207.763,208.02,208.0201,210.0198,practice1,f,1,0.3039,,0,28,28,37,1,0,top_right,threatening,no_target,,,,,,,,,,,,,,,,
,,,,,070923,f,y,r,n,13,0,2025-04-04_13h13.06.137,VisualSearchFaces,2024.2.4,MacIntel,121.9512195,,,,,,,,211.0216,211.2782,211.2782,213.2771,practice1,f,1,0.3756,,0,29,29,38,1,0,bottom_left,threatening,no_target,,,,,,,,,,,,,,,,
,,,,,070923,f,y,r,n,13,0,2025-04-04_13h13.06.137,VisualSearchFaces,2024.2.4,MacIntel,121.9512195,,,,,,,,214.2785,214.528,214.5281,216.528,practice1,f,0,0.3354,,0,30,30,13,1,1,bottom_left,friendly,neutral,,,,,,,,,,,,,,,,
,,,,,070923,f,y,r,n,13,0,2025-04-04_13h13.06.137,VisualSearchFaces,2024.2.4,MacIntel,121.9512195,,,,,,,,217.5294,217.7857,217.7858,219.7862,practice1,j,1,0.5153,,0,31,31,0,1,1,centre,neutral,friendly,,,,,,,,,,,,,,,,
,,,,,070923,f,y,r,n,13,0,2025-04-04_13h13.06.137,VisualSearchFaces,2024.2.4,MacIntel,121.9512195,,,,,,,,220.7879,221.0448,221.0449,223.0439,practice1,j,1,0.608,,0,32,32,10,1,1,centre,friendly,neutral,,,,,,,,,,,,,,,,
,,,,,070923,f,y,r,n,13,0,2025-04-04_13h13.06.137,VisualSearchFaces,2024.2.4,MacIntel,121.9512195,,,,,,,,224.0451,224.3026,224.3026,226.3018,practice1,f,1,0.3263,,0,33,33,24,1,0,bottom_right,neutral,no_target,,,,,,,,,,,,,,,,
,,,,,070923,f,y,r,n,13,0,2025-04-04_13h13.06.137,VisualSearchFaces,2024.2.4,MacIntel,121.9512195,,,,,,,,227.3047,227.5611,227.5611,229.5614,practice1,f,1,0.2586,,0,34,34,21,1,0,top_left,neutral,no_target,,,,,,,,,,,,,,,,
,,,,,070923,f,y,r,n,13,0,2025-04-04_13h13.06.137,VisualSearchFaces,2024.2.4,MacIntel,121.9512195,,,,,,,,230.5629,230.8195,230.8196,232.8194,practice1,f,1,0.1847,,0,35,35,23,1,0,bottom_left,neutral,no_target,,,,,,,,,,,,,,,,
,,,,,070923,f,y,r,n,13,0,2025-04-04_13h13.06.137,VisualSearchFaces,2024.2.4,MacIntel,121.9512195,,,,,,,,233.821,234.0776,234.0776,236.0779,practice1,j,1,0.2931,,0,36,36,4,1,1,bottom_right,neutral,friendly,,,,,,,,,,,,,,,,
,,,,,070923,f,y,r,n,13,0,2025-04-04_13h13.06.137,VisualSearchFaces,2024.2.4,MacIntel,121.9512195,,,,,,,,237.0795,237.3365,237.3366,239.336,practice1,j,1,0.3333,,0,37,37,6,1,1,top_left,neutral,threatening,,,,,,,,,,,,,,,,
,,,,,070923,f,y,r,n,13,0,2025-04-04_13h13.06.137,VisualSearchFaces,2024.2.4,MacIntel,121.9512195,,,,,,,,240.3386,240.5947,240.5948,242.5946,practice1,j,1,0.2756,,0,38,38,7,1,1,top_right,neutral,threatening,,,,,,,,,,,,,,,,
,,,,,070923,f,y,r,n,13,0,2025-04-04_13h13.06.137,VisualSearchFaces,2024.2.4,MacIntel,121.9512195,,,,,,,,243.5952,243.844,243.8441,245.8448,practice1,f,1,0.2757,,0,39,39,30,1,0,centre,friendly,no_target,,,,,,,,,,,,,,,,
,,,,,070923,f,y,r,n,13,0,2025-04-04_13h13.06.137,VisualSearchFaces,2024.2.4,MacIntel,121.9512195,,,301.0893,349.9267,space,48.8238,,350.93,351.0349,351.0351,353.0359,practice2,f,1,0.5517,,0,0,0,38,1,0,bottom_left,threatening,no_target,245.8459,301.0866,space,55.2274,,,,,,,,,,,,
,,,,,070923,f,y,r,n,13,0,2025-04-04_13h13.06.137,VisualSearchFaces,2024.2.4,MacIntel,121.9512195,,,,,,,,354.0374,354.144,354.1441,356.1435,practice2,f,1,0.3249,,0,1,1,20,1,0,centre,neutral,no_target,,,,,,,,,,,,,,,,
,,,,,070923,f,y,r,n,13,0,2025-04-04_13h13.06.137,VisualSearchFaces,2024.2.4,MacIntel,121.9512195,,,,,,,,357.1451,357.2441,357.2441,359.2441,practice2,f,1,0.3332,,0,2,2,21,1,0,top_left,neutral,no_target,,,,,,,,,,,,,,,,
,,,,,070923,f,y,r,n,13,0,2025-04-04_13h13.06.137,VisualSearchFaces,2024.2.4,MacIntel,121.9512195,,,,,,,,360.2457,360.3524,360.3525,362.3524,practice2,j,1,0.3431,,0,3,3,17,1,1,top_right,threatening,neutral,,,,,,,,,,,,,,,,
,,,,,070923,f,y,r,n,13,0,2025-04-04_13h13.06.137,VisualSearchFaces,2024.2.4,MacIntel,121.9512195,,,,,,,,363.3529,363.4522,363.4522,365.4524,practice2,j,1,0.3751,,0,4,4,7,1,1,top_right,neutral,threatening,,,,,,,,,,,,,,,,
,,,,,070923,f,y,r,n,13,0,2025-04-04_13h13.06.137,VisualSearchFaces,2024.2.4,MacIntel,121.9512195,,,,,,,,366.4541,366.5606,366.5607,368.5606,practice2,j,0,0.2179,,0,5,5,27,1,0,top_right,neutral,no_target,,,,,,,,,,,,,,,,
,,,,,070923,f,y,r,n,13,0,2025-04-04_13h13.06.137,VisualSearchFaces,2024.2.4,MacIntel,121.9512195,,,,,,,,369.562,369.665,369.665,371.6648,practice2,j,1,0.3671,,0,6,6,15,1,1,centre,threatening,neutral,,,,,,,,,,,,,,,,
,,,,,070923,f,y,r,n,13,0,2025-04-04_13h13.06.137,VisualSearchFaces,2024.2.4,MacIntel,121.9512195,,,,,,,,372.6661,372.7732,372.7733,374.773,practice2,j,1,0.2752,,0,7,7,5,1,1,centre,neutral,threatening,,,,,,,,,,,,,,,,
,,,,,070923,f,y,r,n,13,0,2025-04-04_13h13.06.137,VisualSearchFaces,2024.2.4,MacIntel,121.9512195,,,,,,,,375.7745,375.8814,375.8815,377.8816,practice2,j,1,0.3841,,0,8,8,0,1,1,centre,neutral,friendly,,,,,,,,,,,,,,,,
,,,,,070923,f,y,r,n,13,0,2025-04-04_13h13.06.137,VisualSearchFaces,2024.2.4,MacIntel,121.9512195,,,,,,,,378.883,378.989,378.9891,380.9898,practice2,f,1,0.2459,,0,9,9,29,1,0,bottom_right,neutral,no_target,,,,,,,,,,,,,,,,
,,,,,070923,f,y,r,n,13,0,2025-04-04_13h13.06.137,VisualSearchFaces,2024.2.4,MacIntel,121.9512195,,,,,,,,381.9913,382.0982,382.0982,384.098,practice2,j,0,0.4369,,0,10,10,31,1,0,top_left,friendly,no_target,,,,,,,,,,,,,,,,
,,,,,070923,f,y,r,n,13,0,2025-04-04_13h13.06.137,VisualSearchFaces,2024.2.4,MacIntel,121.9512195,,,,,,,,385.0997,385.2064,385.2065,387.2057,practice2,f,1,0.5828,,0,11,11,36,1,0,top_left,threatening,no_target,,,,,,,,,,,,,,,,
,,,,,070923,f,y,r,n,13,0,2025-04-04_13h13.06.137,VisualSearchFaces,2024.2.4,MacIntel,121.9512195,,,,,,,,388.2078,388.3137,388.3137,390.3148,practice2,j,0,0.3598,,0,12,12,24,1,0,bottom_right,neutral,no_target,,,,,,,,,,,,,,,,
,,,,,070923,f,y,r,n,13,0,2025-04-04_13h13.06.137,VisualSearchFaces,2024.2.4,MacIntel,121.9512195,,,,,,,,391.3161,391.423,391.4231,393.4232,practice2,f,1,0.3498,,0,13,13,23,1,0,bottom_left,neutral,no_target,,,,,,,,,,,,,,,,
,,,,,070923,f,y,r,n,13,0,2025-04-04_13h13.06.137,VisualSearchFaces,2024.2.4,MacIntel,121.9512195,,,,,,,,394.4243,394.5314,394.5314,396.5312,practice2,f,1,0.3179,,0,14,14,35,1,0,centre,threatening,no_target,,,,,,,,,,,,,,,,
,,,,,070923,f,y,r,n,13,0,2025-04-04_13h13.06.137,VisualSearchFaces,2024.2.4,MacIntel,121.9512195,,,,,,,,397.5327,397.6397,397.6397,399.6395,practice2,f,0,0.3166,,0,15,15,18,1,1,bottom_left,threatening,neutral,,,,,,,,,,,,,,,,
,,,,,070923,f,y,r,n,13,0,2025-04-04_13h13.06.137,VisualSearchFaces,2024.2.4,MacIntel,121.9512195,,,,,,,,400.6408,400.7481,400.7481,402.748,practice2,f,1,0.543,,0,16,16,32,1,0,top_right,friendly,no_target,,,,,,,,,,,,,,,,
,,,,,070923,f,y,r,n,13,0,2025-04-04_13h13.06.137,VisualSearchFaces,2024.2.4,MacIntel,121.9512195,,,,,,,,403.7497,403.8564,403.8564,405.8564,practice2,f,0,0.3209,,0,17,17,19,1,1,bottom_right,threatening,neutral,,,,,,,,,,,,,,,,
,,,,,070923,f,y,r,n,13,0,2025-04-04_13h13.06.137,VisualSearchFaces,2024.2.4,MacIntel,121.9512195,,,,,,,,406.8579,406.9646,406.9646,408.9646,practice2,f,1,0.3757,,0,18,18,28,1,0,bottom_left,neutral,no_target,,,,,,,,,,,,,,,,
,,,,,070923,f,y,r,n,13,0,2025-04-04_13h13.06.137,VisualSearchFaces,2024.2.4,MacIntel,121.9512195,,,,,,,,409.967,410.0726,410.0727,412.0721,practice2,f,1,0.4339,,0,19,19,30,1,0,centre,friendly,no_target,,,,,,,,,,,,,,,,
,,,,,070923,f,y,r,n,13,0,2025-04-04_13h13.06.137,VisualSearchFaces,2024.2.4,MacIntel,121.9512195,,,,,,,,413.0747,413.1802,413.1803,415.1815,practice2,f,1,0.355,,0,20,20,22,1,0,top_right,neutral,no_target,,,,,,,,,,,,,,,,
,,,,,070923,f,y,r,n,13,0,2025-04-04_13h13.06.137,VisualSearchFaces,2024.2.4,MacIntel,121.9512195,,,,,,,,416.1832,416.2896,416.2896,418.2895,practice2,f,1,0.3084,,0,21,21,26,1,0,top_left,neutral,no_target,,,,,,,,,,,,,,,,
,,,,,070923,f,y,r,n,13,0,2025-04-04_13h13.06.137,VisualSearchFaces,2024.2.4,MacIntel,121.9512195,,,,,,,,419.2914,419.3898,419.3899,421.3891,practice2,f,0,0.4254,,0,22,22,16,1,1,top_left,threatening,neutral,,,,,,,,,,,,,,,,
,,,,,070923,f,y,r,n,13,0,2025-04-04_13h13.06.137,VisualSearchFaces,2024.2.4,MacIntel,121.9512195,,,,,,,,422.3914,422.4973,422.4973,424.4972,practice2,f,1,0.2761,,0,23,23,39,1,0,bottom_right,threatening,no_target,,,,,,,,,,,,,,,,
,,,,,070923,f,y,r,n,13,0,2025-04-04_13h13.06.137,VisualSearchFaces,2024.2.4,MacIntel,121.9512195,,,,,,,,425.4988,425.5979,425.5979,427.5969,practice2,f,0,0.2492,,0,24,24,13,1,1,bottom_left,friendly,neutral,,,,,,,,,,,,,,,,
,,,,,070923,f,y,r,n,13,0,2025-04-04_13h13.06.137,VisualSearchFaces,2024.2.4,MacIntel,121.9512195,,,,,,,,428.5999,428.7062,428.7062,430.7062,practice2,f,1,0.4341,,0,25,25,37,1,0,top_right,threatening,no_target,,,,,,,,,,,,,,,,
,,,,,070923,f,y,r,n,13,0,2025-04-04_13h13.06.137,VisualSearchFaces,2024.2.4,MacIntel,121.9512195,,,,,,,,431.708,431.8146,431.8146,433.8145,practice2,j,1,0.4697,,0,26,26,1,1,1,top_left,neutral,friendly,,,,,,,,,,,,,,,,
,,,,,070923,f,y,r,n,13,0,2025-04-04_13h13.06.137,VisualSearchFaces,2024.2.4,MacIntel,121.9512195,,,,,,,,434.8165,434.9228,434.9228,436.9229,practice2,j,1,0.3667,,0,27,27,10,1,1,centre,friendly,neutral,,,,,,,,,,,,,,,,
,,,,,070923,f,y,r,n,13,0,2025-04-04_13h13.06.137,VisualSearchFaces,2024.2.4,MacIntel,121.9512195,,,,,,,,437.9232,438.0227,438.0227,440.0228,practice2,j,0,0.3621,,0,28,28,33,1,0,bottom_left,friendly,no_target,,,,,,,,,,,,,,,,
,,,,,070923,f,y,r,n,13,0,2025-04-04_13h13.06.137,VisualSearchFaces,2024.2.4,MacIntel,121.9512195,,,,,,,,441.0242,441.1301,441.1301,443.1311,practice2,f,0,0.3435,,0,29,29,3,1,1,bottom_left,neutral,friendly,,,,,,,,,,,,,,,,
,,,,,070923,f,y,r,n,13,0,2025-04-04_13h13.06.137,VisualSearchFaces,2024.2.4,MacIntel,121.9512195,,,,,,,,444.1323,444.2392,444.2393,446.2396,practice2,j,1,0.5205,,0,30,30,8,1,1,bottom_left,neutral,threatening,,,,,,,,,,,,,,,,
,,,,,070923,f,y,r,n,13,0,2025-04-04_13h13.06.137,VisualSearchFaces,2024.2.4,MacIntel,121.9512195,,,,,,,,447.2399,447.3394,447.3394,449.3393,practice2,j,1,0.4754,,0,31,31,14,1,1,bottom_right,friendly,neutral,,,,,,,,,,,,,,,,
,,,,,070923,f,y,r,n,13,0,2025-04-04_13h13.06.137,VisualSearchFaces,2024.2.4,MacIntel,121.9512195,,,,,,,,450.3408,450.4471,450.4471,452.4469,practice2,j,1,0.5405,,0,32,32,6,1,1,top_left,neutral,threatening,,,,,,,,,,,,,,,,
,,,,,070923,f,y,r,n,13,0,2025-04-04_13h13.06.137,VisualSearchFaces,2024.2.4,MacIntel,121.9512195,,,,,,,,453.4492,453.5562,453.5563,455.5554,practice2,f,0,0.6422,,0,33,33,11,1,1,top_left,friendly,neutral,,,,,,,,,,,,,,,,
,,,,,070923,f,y,r,n,13,0,2025-04-04_13h13.06.137,VisualSearchFaces,2024.2.4,MacIntel,121.9512195,,,,,,,,456.5583,456.6645,456.6645,458.6646,practice2,f,1,0.6673,,0,34,34,25,1,0,centre,neutral,no_target,,,,,,,,,,,,,,,,
,,,,,070923,f,y,r,n,13,0,2025-04-04_13h13.06.137,VisualSearchFaces,2024.2.4,MacIntel,121.9512195,,,,,,,,459.6668,459.7721,459.7722,461.7726,practice2,f,1,0.6183,,0,35,35,34,1,0,bottom_right,friendly,no_target,,,,,,,,,,,,,,,,
,,,,,070923,f,y,r,n,13,0,2025-04-04_13h13.06.137,VisualSearchFaces,2024.2.4,MacIntel,121.9512195,,,,,,,,462.7742,462.881,462.8811,464.881,practice2,j,1,0.5797,,0,36,36,4,1,1,bottom_right,neutral,friendly,,,,,,,,,,,,,,,,
,,,,,070923,f,y,r,n,13,0,2025-04-04_13h13.06.137,VisualSearchFaces,2024.2.4,MacIntel,121.9512195,,,,,,,,465.8825,465.9893,465.9894,467.9885,practice2,f,0,0.8084,,0,37,37,12,1,1,top_right,friendly,neutral,,,,,,,,,,,,,,,,
,,,,,070923,f,y,r,n,13,0,2025-04-04_13h13.06.137,VisualSearchFaces,2024.2.4,MacIntel,121.9512195,,,,,,,,468.9911,469.0976,469.0977,471.0968,practice2,j,1,0.5922,,0,38,38,2,1,1,top_right,neutral,friendly,,,,,,,,,,,,,,,,
,,,,,070923,f,y,r,n,13,0,2025-04-04_13h13.06.137,VisualSearchFaces,2024.2.4,MacIntel,121.9512195,,,,,,,,472.099,472.1976,472.1977,474.1976,practice2,j,1,0.4718,,0,39,39,9,1,1,bottom_right,neutral,threatening,,,,,,,,,,,,,,,,
,,,,,070923,f,y,r,n,13,0,2025-04-04_13h13.06.137,VisualSearchFaces,2024.2.4,MacIntel,121.9512195,,,519.4244,583.5977,space,64.1599,,584.5986,584.6973,584.6973,586.697,block1,f,1,0.4412,,0,0,0,36,1,0,top_left,threatening,no_target,474.1991,519.4218,space,45.2094,,,,,,,,,,,,
,,,,,070923,f,y,r,n,13,0,2025-04-04_13h13.06.137,VisualSearchFaces,2024.2.4,MacIntel,121.9512195,,,,,,,,587.6975,587.8053,587.8055,589.8045,block1,j,0,0.4681,,0,1,1,34,1,0,bottom_right,friendly,no_target,,,,,,,,,,,,,,,,
,,,,,070923,f,y,r,n,13,0,2025-04-04_13h13.06.137,VisualSearchFaces,2024.2.4,MacIntel,121.9512195,,,,,,,,590.8076,590.9138,590.914,592.913,block1,j,1,0.6509,,0,2,2,12,1,1,top_right,friendly,neutral,,,,,,,,,,,,,,,,
,,,,,070923,f,y,r,n,13,0,2025-04-04_13h13.06.137,VisualSearchFaces,2024.2.4,MacIntel,121.9512195,,,,,,,,593.915,594.0138,594.0139,596.0127,block1,f,1,0.8505,,0,3,3,38,1,0,bottom_left,threatening,no_target,,,,,,,,,,,,,,,,
,,,,,070923,f,y,r,n,13,0,2025-04-04_13h13.06.137,VisualSearchFaces,2024.2.4,MacIntel,121.9512195,,,,,,,,597.0153,597.1218,597.1219,599.122,block1,f,1,0.5512,,0,4,4,37,1,0,top_right,threatening,no_target,,,,,,,,,,,,,,,,
,,,,,070923,f,y,r,n,13,0,2025-04-04_13h13.06.137,VisualSearchFaces,2024.2.4,MacIntel,121.9512195,,,,,,,,600.1239,600.2306,600.2306,602.2304,block1,f,1,0.6866,,0,5,5,26,1,0,top_left,neutral,no_target,,,,,,,,,,,,,,,,
,,,,,070923,f,y,r,n,13,0,2025-04-04_13h13.06.137,VisualSearchFaces,2024.2.4,MacIntel,121.9512195,,,,,,,,603.2317,603.3385,603.3386,605.3377,block1,f,0,0.5006,,0,6,6,14,1,1,bottom_right,friendly,neutral,,,,,,,,,,,,,,,,
,,,,,070923,f,y,r,n,13,0,2025-04-04_13h13.06.137,VisualSearchFaces,2024.2.4,MacIntel,121.9512195,,,,,,,,606.3392,606.4389,606.4389,608.4388,block1,j,1,0.5255,,0,7,7,11,1,1,top_left,friendly,neutral,,,,,,,,,,,,,,,,
,,,,,070923,f,y,r,n,13,0,2025-04-04_13h13.06.137,VisualSearchFaces,2024.2.4,MacIntel,121.9512195,,,,,,,,609.4398,609.5386,609.5387,611.5383,block1,f,1,0.4425,,0,8,8,24,1,0,bottom_right,neutral,no_target,,,,,,,,,,,,,,,,
,,,,,070923,f,y,r,n,13,0,2025-04-04_13h13.06.137,VisualSearchFaces,2024.2.4,MacIntel,121.9512195,,,,,,,,612.5401,612.6469,612.647,614.6469,block1,j,1,0.6,,0,9,9,3,1,1,bottom_left,neutral,friendly,,,,,,,,,,,,,,,,
,,,,,070923,f,y,r,n,13,0,2025-04-04_13h13.06.137,VisualSearchFaces,2024.2.4,MacIntel,121.9512195,,,,,,,,615.6494,615.7553,615.7554,617.7545,block1,f,1,0.4746,,0,10,10,25,1,0,centre,neutral,no_target,,,,,,,,,,,,,,,,
,,,,,070923,f,y,r,n,13,0,2025-04-04_13h13.06.137,VisualSearchFaces,2024.2.4,MacIntel,121.9512195,,,,,,,,618.7565,618.8636,618.8637,620.8635,block1,f,1,0.7581,,0,11,11,32,1,0,top_right,friendly,no_target,,,,,,,,,,,,,,,,
,,,,,070923,f,y,r,n,13,0,2025-04-04_13h13.06.137,VisualSearchFaces,2024.2.4,MacIntel,121.9512195,,,,,,,,621.8652,621.9719,621.9719,623.9719,block1,j,1,0.4245,,0,12,12,7,1,1,top_right,neutral,threatening,,,,,,,,,,,,,,,,
,,,,,070923,f,y,r,n,13,0,2025-04-04_13h13.06.137,VisualSearchFaces,2024.2.4,MacIntel,121.9512195,,,,,,,,624.9744,625.0802,625.0802,627.08,block1,f,0,0.4923,,0,13,13,18,1,1,bottom_left,threatening,neutral,,,,,,,,,,,,,,,,
,,,,,070923,f,y,r,n,13,0,2025-04-04_13h13.06.137,VisualSearchFaces,2024.2.4,MacIntel,121.9512195,,,,,,,,628.0823,628.1885,628.1885,630.1885,block1,f,1,0.7924,,0,14,14,33,1,0,bottom_left,friendly,no_target,,,,,,,,,,,,,,,,
,,,,,070923,f,y,r,n,13,0,2025-04-04_13h13.06.137,VisualSearchFaces,2024.2.4,MacIntel,121.9512195,,,,,,,,631.1902,631.2961,631.2962,633.297,block1,f,0,0.6627,,0,15,15,15,1,1,centre,threatening,neutral,,,,,,,,,,,,,,,,
,,,,,070923,f,y,r,n,13,0,2025-04-04_13h13.06.137,VisualSearchFaces,2024.2.4,MacIntel,121.9512195,,,,,,,,634.298,634.3966,634.3966,636.3967,block1,j,1,0.6424,,0,16,16,8,1,1,bottom_left,neutral,threatening,,,,,,,,,,,,,,,,
,,,,,070923,f,y,r,n,13,0,2025-04-04_13h13.06.137,VisualSearchFaces,2024.2.4,MacIntel,121.9512195,,,,,,,,637.3979,637.5045,637.5046,639.505,block1,f,1,0.4417,,0,17,17,28,1,0,bottom_left,neutral,no_target,,,,,,,,,,,,,,,,
,,,,,070923,f,y,r,n,13,0,2025-04-04_13h13.06.137,VisualSearchFaces,2024.2.4,MacIntel,121.9512195,,,,,,,,640.5067,640.6135,640.6136,642.6136,block1,j,1,0.4584,,0,18,18,1,1,1,top_left,neutral,friendly,,,,,,,,,,,,,,,,
,,,,,070923,f,y,r,n,13,0,2025-04-04_13h13.06.137,VisualSearchFaces,2024.2.4,MacIntel,121.9512195,,,,,,,,643.6144,643.7138,643.7138,645.7135,block1,j,1,0.6182,,0,19,19,4,1,1,bottom_right,neutral,friendly,,,,,,,,,,,,,,,,
,,,,,070923,f,y,r,n,13,0,2025-04-04_13h13.06.137,VisualSearchFaces,2024.2.4,MacIntel,121.9512195,,,,,,,,646.7157,646.8218,646.8218,648.8218,block1,j,1,0.4008,,0,20,20,9,1,1,bottom_right,neutral,threatening,,,,,,,,,,,,,,,,
,,,,,070923,f,y,r,n,13,0,2025-04-04_13h13.06.137,VisualSearchFaces,2024.2.4,MacIntel,121.9512195,,,,,,,,649.8233,649.9303,649.9303,651.9301,block1,f,1,0.5675,,0,21,21,23,1,0,bottom_left,neutral,no_target,,,,,,,,,,,,,,,,
,,,,,070923,f,y,r,n,13,0,2025-04-04_13h13.06.137,VisualSearchFaces,2024.2.4,MacIntel,121.9512195,,,,,,,,652.9315,653.0386,653.0387,655.0384,block1,j,1,0.6942,,0,22,22,10,1,1,centre,friendly,neutral,,,,,,,,,,,,,,,,
,,,,,070923,f,y,r,n,13,0,2025-04-04_13h13.06.137,VisualSearchFaces,2024.2.4,MacIntel,121.9512195,,,,,,,,656.0391,656.1385,656.1387,658.1383,block1,j,1,0.618,,0,23,23,16,1,1,top_left,threatening,neutral,,,,,,,,,,,,,,,,
,,,,,070923,f,y,r,n,13,0,2025-04-04_13h13.06.137,VisualSearchFaces,2024.2.4,MacIntel,121.9512195,,,,,,,,659.1397,659.2459,659.2459,661.2467,block1,j,0,0.4182,,0,24,24,30,1,0,centre,friendly,no_target,,,,,,,,,,,,,,,,
,,,,,070923,f,y,r,n,13,0,2025-04-04_13h13.06.137,VisualSearchFaces,2024.2.4,MacIntel,121.9512195,,,,,,,,662.248,662.3551,662.3552,664.3551,block1,j,1,0.8168,,0,25,25,0,1,1,centre,neutral,friendly,,,,,,,,,,,,,,,,
,,,,,070923,f,y,r,n,13,0,2025-04-04_13h13.06.137,VisualSearchFaces,2024.2.4,MacIntel,121.9512195,,,,,,,,665.3561,665.4549,665.4549,667.4549,block1,f,1,0.7838,,0,26,26,35,1,0,centre,threatening,no_target,,,,,,,,,,,,,,,,
,,,,,070923,f,y,r,n,13,0,2025-04-04_13h13.06.137,VisualSearchFaces,2024.2.4,MacIntel,121.9512195,,,,,,,,668.4556,668.5549,668.5549,670.555,block1,f,1,0.5165,,0,27,27,20,1,0,centre,neutral,no_target,,,,,,,,,,,,,,,,
,,,,,070923,f,y,r,n,13,0,2025-04-04_13h13.06.137,VisualSearchFaces,2024.2.4,MacIntel,121.9512195,,,,,,,,671.5562,671.6635,671.6636,673.6627,block1,f,1,0.4833,,0,28,28,22,1,0,top_right,neutral,no_target,,,,,,,,,,,,,,,,
,,,,,070923,f,y,r,n,13,0,2025-04-04_13h13.06.137,VisualSearchFaces,2024.2.4,MacIntel,121.9512195,,,,,,,,674.665,674.7717,674.7718,676.7715,block1,f,1,0.5845,,0,29,29,39,1,0,bottom_right,threatening,no_target,,,,,,,,,,,,,,,,
,,,,,070923,f,y,r,n,13,0,2025-04-04_13h13.06.137,VisualSearchFaces,2024.2.4,MacIntel,121.9512195,,,,,,,,677.7732,677.8795,677.8796,679.8801,block1,f,0,0.5125,,0,30,30,5,1,1,centre,neutral,threatening,,,,,,,,,,,,,,,,
,,,,,070923,f,y,r,n,13,0,2025-04-04_13h13.06.137,VisualSearchFaces,2024.2.4,MacIntel,121.9512195,,,,,,,,680.8816,680.9876,680.9876,682.9881,block1,f,1,0.2882,,0,31,31,29,1,0,bottom_right,neutral,no_target,,,,,,,,,,,,,,,,
,,,,,070923,f,y,r,n,13,0,2025-04-04_13h13.06.137,VisualSearchFaces,2024.2.4,MacIntel,121.9512195,,,,,,,,683.9899,684.0967,684.0967,686.0955,block1,f,1,0.3781,,0,32,32,21,1,0,top_left,neutral,no_target,,,,,,,,,,,,,,,,
,,,,,070923,f,y,r,n,13,0,2025-04-04_13h13.06.137,VisualSearchFaces,2024.2.4,MacIntel,121.9512195,,,,,,,,687.0975,687.204,687.204,689.2046,block1,j,1,0.4454,,0,33,33,6,1,1,top_left,neutral,threatening,,,,,,,,,,,,,,,,
,,,,,070923,f,y,r,n,13,0,2025-04-04_13h13.06.137,VisualSearchFaces,2024.2.4,MacIntel,121.9512195,,,,,,,,690.2068,690.3132,690.3133,692.3134,block1,f,0,0.4921,,0,34,34,19,1,1,bottom_right,threatening,neutral,,,,,,,,,,,,,,,,
,,,,,070923,f,y,r,n,13,0,2025-04-04_13h13.06.137,VisualSearchFaces,2024.2.4,MacIntel,121.9512195,,,,,,,,693.3145,693.4216,693.4216,695.4216,block1,f,1,0.393,,0,35,35,27,1,0,top_right,neutral,no_target,,,,,,,,,,,,,,,,
,,,,,070923,f,y,r,n,13,0,2025-04-04_13h13.06.137,VisualSearchFaces,2024.2.4,MacIntel,121.9512195,,,,,,,,696.4239,696.53,696.53,698.5299,block1,j,1,0.4591,,0,36,36,13,1,1,bottom_left,friendly,neutral,,,,,,,,,,,,,,,,
,,,,,070923,f,y,r,n,13,0,2025-04-04_13h13.06.137,VisualSearchFaces,2024.2.4,MacIntel,121.9512195,,,,,,,,699.5322,699.6383,699.6384,701.6383,block1,j,1,0.5766,,0,37,37,2,1,1,top_right,neutral,friendly,,,,,,,,,,,,,,,,
,,,,,070923,f,y,r,n,13,0,2025-04-04_13h13.06.137,VisualSearchFaces,2024.2.4,MacIntel,121.9512195,,,,,,,,702.6407,702.7467,702.7468,704.7465,block1,j,0,0.5663,,0,38,38,31,1,0,top_left,friendly,no_target,,,,,,,,,,,,,,,,
,,,,,070923,f,y,r,n,13,0,2025-04-04_13h13.06.137,VisualSearchFaces,2024.2.4,MacIntel,121.9512195,,,,,,,,705.748,705.855,705.8551,707.8547,block1,j,1,0.4203,,0,39,39,17,1,1,top_right,threatening,neutral,,,,,,,,,,,,,,,,
,,,,,070923,f,y,r,n,13,0,2025-04-04_13h13.06.137,VisualSearchFaces,2024.2.4,MacIntel,121.9512195,,,,,,,,708.857,708.9623,708.9624,710.9632,block1,j,1,0.3783,,1,0,40,0,1,1,centre,neutral,friendly,,,,,,,,,,,,,,,,
,,,,,070923,f,y,r,n,13,0,2025-04-04_13h13.06.137,VisualSearchFaces,2024.2.4,MacIntel,121.9512195,,,,,,,,711.9642,712.0631,712.0631,714.0633,block1,j,0,0.3834,,1,1,41,39,1,0,bottom_right,threatening,no_target,,,,,,,,,,,,,,,,
,,,,,070923,f,y,r,n,13,0,2025-04-04_13h13.06.137,VisualSearchFaces,2024.2.4,MacIntel,121.9512195,,,,,,,,715.0645,715.1718,715.1719,717.1714,block1,j,1,0.4252,,1,2,42,6,1,1,top_left,neutral,threatening,,,,,,,,,,,,,,,,
,,,,,070923,f,y,r,n,13,0,2025-04-04_13h13.06.137,VisualSearchFaces,2024.2.4,MacIntel,121.9512195,,,,,,,,718.1739,718.2798,718.2799,720.2798,block1,f,1,0.4505,,1,3,43,23,1,0,bottom_left,neutral,no_target,,,,,,,,,,,,,,,,
,,,,,070923,f,y,r,n,13,0,2025-04-04_13h13.06.137,VisualSearchFaces,2024.2.4,MacIntel,121.9512195,,,,,,,,721.2803,721.3796,721.3797,723.3797,block1,f,1,0.4491,,1,4,44,24,1,0,bottom_right,neutral,no_target,,,,,,,,,,,,,,,,
,,,,,070923,f,y,r,n,13,0,2025-04-04_13h13.06.137,VisualSearchFaces,2024.2.4,MacIntel,121.9512195,,,,,,,,724.382,724.4881,724.4882,726.4881,block1,j,1,0.651,,1,5,45,10,1,1,centre,friendly,neutral,,,,,,,,,,,,,,,,
,,,,,070923,f,y,r,n,13,0,2025-04-04_13h13.06.137,VisualSearchFaces,2024.2.4,MacIntel,121.9512195,,,,,,,,727.4896,727.5954,727.5955,729.5963,block1,f,1,0.41,,1,6,46,26,1,0,top_left,neutral,no_target,,,,,,,,,,,,,,,,
,,,,,070923,f,y,r,n,13,0,2025-04-04_13h13.06.137,VisualSearchFaces,2024.2.4,MacIntel,121.9512195,,,,,,,,730.5978,730.704,730.704,732.7047,block1,j,1,0.4204,,1,7,47,9,1,1,bottom_right,neutral,threatening,,,,,,,,,,,,,,,,
,,,,,070923,f,y,r,n,13,0,2025-04-04_13h13.06.137,VisualSearchFaces,2024.2.4,MacIntel,121.9512195,,,,,,,,733.7059,733.8131,733.8131,735.8131,block1,j,1,0.3998,,1,8,48,14,1,1,bottom_right,friendly,neutral,,,,,,,,,,,,,,,,
,,,,,070923,f,y,r,n,13,0,2025-04-04_13h13.06.137,VisualSearchFaces,2024.2.4,MacIntel,121.9512195,,,,,,,,736.8153,736.9214,736.9214,738.9216,block1,j,1,0.8921,,1,9,49,5,1,1,centre,neutral,threatening,,,,,,,,,,,,,,,,
,,,,,070923,f,y,r,n,13,0,2025-04-04_13h13.06.137,VisualSearchFaces,2024.2.4,MacIntel,121.9512195,,,,,,,,739.923,740.0288,740.0289,742.0299,block1,j,1,0.6206,,1,10,50,7,1,1,top_right,neutral,threatening,,,,,,,,,,,,,,,,
,,,,,070923,f,y,r,n,13,0,2025-04-04_13h13.06.137,VisualSearchFaces,2024.2.4,MacIntel,121.9512195,,,,,,,,743.0314,743.1381,743.1382,745.1373,block1,f,1,0.4427,,1,11,51,27,1,0,top_right,neutral,no_target,,,,,,,,,,,,,,,,
,,,,,070923,f,y,r,n,13,0,2025-04-04_13h13.06.137,VisualSearchFaces,2024.2.4,MacIntel,121.9512195,,,,,,,,746.1398,746.2465,746.2465,748.2464,block1,f,1,0.384,,1,12,52,28,1,0,bottom_left,neutral,no_target,,,,,,,,,,,,,,,,
,,,,,070923,f,y,r,n,13,0,2025-04-04_13h13.06.137,VisualSearchFaces,2024.2.4,MacIntel,121.9512195,,,,,,,,749.2479,749.3537,749.3538,751.3547,block1,j,1,0.9422,,1,13,53,16,1,1,top_left,threatening,neutral,,,,,,,,,,,,,,,,
,,,,,070923,f,y,r,n,13,0,2025-04-04_13h13.06.137,VisualSearchFaces,2024.2.4,MacIntel,121.9512195,,,,,,,,752.3565,752.4632,752.4633,754.4629,block1,j,1,0.8186,,1,14,54,12,1,1,top_right,friendly,neutral,,,,,,,,,,,,,,,,
,,,,,070923,f,y,r,n,13,0,2025-04-04_13h13.06.137,VisualSearchFaces,2024.2.4,MacIntel,121.9512195,,,,,,,,755.4655,755.5715,755.5715,757.571,block1,f,1,0.5181,,1,15,55,36,1,0,top_left,threatening,no_target,,,,,,,,,,,,,,,,
,,,,,070923,f,y,r,n,13,0,2025-04-04_13h13.06.137,VisualSearchFaces,2024.2.4,MacIntel,121.9512195,,,,,,,,758.5726,758.6798,758.6798,760.6786,block1,j,1,0.4596,,1,16,56,4,1,1,bottom_right,neutral,friendly,,,,,,,,,,,,,,,,
,,,,,070923,f,y,r,n,13,0,2025-04-04_13h13.06.137,VisualSearchFaces,2024.2.4,MacIntel,121.9512195,,,,,,,,761.6804,761.7797,761.7797,763.7797,block1,f,1,0.45,,1,17,57,33,1,0,bottom_left,friendly,no_target,,,,,,,,,,,,,,,,
,,,,,070923,f,y,r,n,13,0,2025-04-04_13h13.06.137,VisualSearchFaces,2024.2.4,MacIntel,121.9512195,,,,,,,,764.7808,764.8868,764.8869,766.8879,block1,f,1,0.6012,,1,18,58,20,1,0,centre,neutral,no_target,,,,,,,,,,,,,,,,
,,,,,070923,f,y,r,n,13,0,2025-04-04_13h13.06.137,VisualSearchFaces,2024.2.4,MacIntel,121.9512195,,,,,,,,767.8889,767.9883,767.9884,769.9878,block1,f,1,0.3905,,1,19,59,22,1,0,top_right,neutral,no_target,,,,,,,,,,,,,,,,
,,,,,070923,f,y,r,n,13,0,2025-04-04_13h13.06.137,VisualSearchFaces,2024.2.4,MacIntel,121.9512195,,,,,,,,770.989,771.0962,771.0963,773.0962,block1,j,1,0.6167,,1,20,60,17,1,1,top_right,threatening,neutral,,,,,,,,,,,,,,,,
,,,,,070923,f,y,r,n,13,0,2025-04-04_13h13.06.137,VisualSearchFaces,2024.2.4,MacIntel,121.9512195,,,,,,,,774.0977,774.2045,774.2046,776.2045,block1,f,1,0.3503,,1,21,61,21,1,0,top_left,neutral,no_target,,,,,,,,,,,,,,,,
,,,,,070923,f,y,r,n,13,0,2025-04-04_13h13.06.137,VisualSearchFaces,2024.2.4,MacIntel,121.9512195,,,,,,,,777.2057,777.3129,777.313,779.3128,block1,j,1,0.4847,,1,22,62,3,1,1,bottom_left,neutral,friendly,,,,,,,,,,,,,,,,
,,,,,070923,f,y,r,n,13,0,2025-04-04_13h13.06.137,VisualSearchFaces,2024.2.4,MacIntel,121.9512195,,,,,,,,780.3145,780.4212,780.4212,782.4211,block1,f,1,0.5376,,1,23,63,35,1,0,centre,threatening,no_target,,,,,,,,,,,,,,,,
,,,,,070923,f,y,r,n,13,0,2025-04-04_13h13.06.137,VisualSearchFaces,2024.2.4,MacIntel,121.9512195,,,,,,,,783.4232,783.5286,783.5287,785.5296,block1,f,1,0.3798,,1,24,64,29,1,0,bottom_right,neutral,no_target,,,,,,,,,,,,,,,,
,,,,,070923,f,y,r,n,13,0,2025-04-04_13h13.06.137,VisualSearchFaces,2024.2.4,MacIntel,121.9512195,,,,,,,,786.5303,786.6297,786.6297,788.629,block1,j,1,0.5026,,1,25,65,19,1,1,bottom_right,threatening,neutral,,,,,,,,,,,,,,,,
,,,,,070923,f,y,r,n,13,0,2025-04-04_13h13.06.137,VisualSearchFaces,2024.2.4,MacIntel,121.9512195,,,,,,,,789.6305,789.7371,789.7371,791.7378,block1,j,1,0.4927,,1,26,66,15,1,1,centre,threatening,neutral,,,,,,,,,,,,,,,,
,,,,,070923,f,y,r,n,13,0,2025-04-04_13h13.06.137,VisualSearchFaces,2024.2.4,MacIntel,121.9512195,,,,,,,,792.7394,792.8464,792.8464,794.845,block1,f,0,0.4298,,1,27,67,1,1,1,top_left,neutral,friendly,,,,,,,,,,,,,,,,
,,,,,070923,f,y,r,n,13,0,2025-04-04_13h13.06.137,VisualSearchFaces,2024.2.4,MacIntel,121.9512195,,,,,,,,795.8471,795.9461,795.9463,797.946,block1,j,0,0.8428,,1,28,68,38,1,0,bottom_left,threatening,no_target,,,,,,,,,,,,,,,,
,,,,,070923,f,y,r,n,13,0,2025-04-04_13h13.06.137,VisualSearchFaces,2024.2.4,MacIntel,121.9512195,,,,,,,,798.9474,799.0545,799.0546,801.0543,block1,j,1,0.4333,,1,29,69,2,1,1,top_right,neutral,friendly,,,,,,,,,,,,,,,,
,,,,,070923,f,y,r,n,13,0,2025-04-04_13h13.06.137,VisualSearchFaces,2024.2.4,MacIntel,121.9512195,,,,,,,,802.0561,802.163,802.163,804.1627,block1,f,0,0.5672,,1,30,70,13,1,1,bottom_left,friendly,neutral,,,,,,,,,,,,,,,,
,,,,,070923,f,y,r,n,13,0,2025-04-04_13h13.06.137,VisualSearchFaces,2024.2.4,MacIntel,121.9512195,,,,,,,,805.1643,805.2711,805.2712,807.271,block1,f,1,0.6291,,1,31,71,32,1,0,top_right,friendly,no_target,,,,,,,,,,,,,,,,
,,,,,070923,f,y,r,n,13,0,2025-04-04_13h13.06.137,VisualSearchFaces,2024.2.4,MacIntel,121.9512195,,,,,,,,808.2723,808.3795,808.3796,810.3786,block1,f,1,0.5081,,1,32,72,34,1,0,bottom_right,friendly,no_target,,,,,,,,,,,,,,,,
,,,,,070923,f,y,r,n,13,0,2025-04-04_13h13.06.137,VisualSearchFaces,2024.2.4,MacIntel,121.9512195,,,,,,,,811.3805,811.4878,811.4878,813.4872,block1,f,0,0.433,,1,33,73,11,1,1,top_left,friendly,neutral,,,,,,,,,,,,,,,,
,,,,,070923,f,y,r,n,13,0,2025-04-04_13h13.06.137,VisualSearchFaces,2024.2.4,MacIntel,121.9512195,,,,,,,,814.4881,814.5878,814.5879,816.5877,block1,f,1,0.5286,,1,34,74,30,1,0,centre,friendly,no_target,,,,,,,,,,,,,,,,
,,,,,070923,f,y,r,n,13,0,2025-04-04_13h13.06.137,VisualSearchFaces,2024.2.4,MacIntel,121.9512195,,,,,,,,817.5894,817.6958,817.6958,819.6951,block1,f,1,0.4679,,1,35,75,31,1,0,top_left,friendly,no_target,,,,,,,,,,,,,,,,
,,,,,070923,f,y,r,n,13,0,2025-04-04_13h13.06.137,VisualSearchFaces,2024.2.4,MacIntel,121.9512195,,,,,,,,820.6973,820.8041,820.8042,822.8037,block1,j,1,0.5168,,1,36,76,8,1,1,bottom_left,neutral,threatening,,,,,,,,,,,,,,,,
,,,,,070923,f,y,r,n,13,0,2025-04-04_13h13.06.137,VisualSearchFaces,2024.2.4,MacIntel,121.9512195,,,,,,,,823.8064,823.9127,823.9129,825.9127,block1,f,1,0.6343,,1,37,77,37,1,0,top_right,threatening,no_target,,,,,,,,,,,,,,,,
,,,,,070923,f,y,r,n,13,0,2025-04-04_13h13.06.137,VisualSearchFaces,2024.2.4,MacIntel,121.9512195,,,,,,,,826.9143,827.0203,827.0204,829.0209,block1,f,1,0.4599,,1,38,78,25,1,0,centre,neutral,no_target,,,,,,,,,,,,,,,,
,,,,,070923,f,y,r,n,13,0,2025-04-04_13h13.06.137,VisualSearchFaces,2024.2.4,MacIntel,121.9512195,,,,,,,,830.0231,830.1294,830.1294,832.1291,block1,f,0,0.8678,,1,39,79,18,1,1,bottom_left,threatening,neutral,,,,,,,,,,,,,,,,
,,,,,070923,f,y,r,n,13,0,2025-04-04_13h13.06.137,VisualSearchFaces,2024.2.4,MacIntel,121.9512195,,,904.1312,915.8542,space,11.7079,,916.8558,916.9538,916.954,918.9539,block2,j,1,0.5179,,0,0,0,10,1,1,centre,friendly,neutral,832.131,904.1285,space,71.9837,,,,,,,,,,,,
,,,,,070923,f,y,r,n,13,0,2025-04-04_13h13.06.137,VisualSearchFaces,2024.2.4,MacIntel,121.9512195,,,,,,,,919.9553,920.0623,920.0624,922.062,block2,f,1,0.4923,,0,1,1,36,1,0,top_left,threatening,no_target,,,,,,,,,,,,,,,,
,,,,,070923,f,y,r,n,13,0,2025-04-04_13h13.06.137,VisualSearchFaces,2024.2.4,MacIntel,121.9512195,,,,,,,,923.0636,923.1707,923.1707,925.1708,block2,j,1,0.4187,,0,2,2,14,1,1,bottom_right,friendly,neutral,,,,,,,,,,,,,,,,
,,,,,070923,f,y,r,n,13,0,2025-04-04_13h13.06.137,VisualSearchFaces,2024.2.4,MacIntel,121.9512195,,,,,,,,926.1728,926.279,926.279,928.2779,block2,j,1,0.6748,,0,3,3,15,1,1,centre,threatening,neutral,,,,,,,,,,,,,,,,
,,,,,070923,f,y,r,n,13,0,2025-04-04_13h13.06.137,VisualSearchFaces,2024.2.4,MacIntel,121.9512195,,,,,,,,929.2802,929.3871,929.3872,931.387,block2,j,1,0.6009,,0,4,4,13,1,1,bottom_left,friendly,neutral,,,,,,,,,,,,,,,,
,,,,,070923,f,y,r,n,13,0,2025-04-04_13h13.06.137,VisualSearchFaces,2024.2.4,MacIntel,121.9512195,,,,,,,,932.3877,932.4869,932.487,934.487,block2,f,1,0.3457,,0,5,5,22,1,0,top_right,neutral,no_target,,,,,,,,,,,,,,,,
,,,,,070923,f,y,r,n,13,0,2025-04-04_13h13.06.137,VisualSearchFaces,2024.2.4,MacIntel,121.9512195,,,,,,,,935.4892,935.5872,935.5872,937.5869,block2,f,1,0.493,,0,6,6,30,1,0,centre,friendly,no_target,,,,,,,,,,,,,,,,
,,,,,070923,f,y,r,n,13,0,2025-04-04_13h13.06.137,VisualSearchFaces,2024.2.4,MacIntel,121.9512195,,,,,,,,938.5886,938.6953,938.6954,940.6955,block2,j,1,0.6175,,0,7,7,4,1,1,bottom_right,neutral,friendly,,,,,,,,,,,,,,,,
,,,,,070923,f,y,r,n,13,0,2025-04-04_13h13.06.137,VisualSearchFaces,2024.2.4,MacIntel,121.9512195,,,,,,,,941.6968,941.8025,941.8026,943.8029,block2,j,1,0.6847,,0,8,8,12,1,1,top_right,friendly,neutral,,,,,,,,,,,,,,,,
,,,,,070923,f,y,r,n,13,0,2025-04-04_13h13.06.137,VisualSearchFaces,2024.2.4,MacIntel,121.9512195,,,,,,,,944.8052,944.9119,944.9119,946.912,block2,j,1,0.4594,,0,9,9,19,1,1,bottom_right,threatening,neutral,,,,,,,,,,,,,,,,
,,,,,070923,f,y,r,n,13,0,2025-04-04_13h13.06.137,VisualSearchFaces,2024.2.4,MacIntel,121.9512195,,,,,,,,947.9133,948.0202,948.0204,950.0204,block2,j,1,0.6112,,0,10,10,1,1,1,top_left,neutral,friendly,,,,,,,,,,,,,,,,
,,,,,070923,f,y,r,n,13,0,2025-04-04_13h13.06.137,VisualSearchFaces,2024.2.4,MacIntel,121.9512195,,,,,,,,951.0207,951.1198,951.1199,953.1204,block2,j,1,0.3748,,0,11,11,7,1,1,top_right,neutral,threatening,,,,,,,,,,,,,,,,
,,,,,070923,f,y,r,n,13,0,2025-04-04_13h13.06.137,VisualSearchFaces,2024.2.4,MacIntel,121.9512195,,,,,,,,954.1217,954.2288,954.229,956.228,block2,f,1,0.4331,,0,12,12,20,1,0,centre,neutral,no_target,,,,,,,,,,,,,,,,
,,,,,070923,f,y,r,n,13,0,2025-04-04_13h13.06.137,VisualSearchFaces,2024.2.4,MacIntel,121.9512195,,,,,,,,957.2307,957.337,957.3371,959.3362,block2,j,1,0.4085,,0,13,13,9,1,1,bottom_right,neutral,threatening,,,,,,,,,,,,,,,,
,,,,,070923,f,y,r,n,13,0,2025-04-04_13h13.06.137,VisualSearchFaces,2024.2.4,MacIntel,121.9512195,,,,,,,,960.338,960.4455,960.4456,962.4452,block2,j,1,0.6572,,0,14,14,18,1,1,bottom_left,threatening,neutral,,,,,,,,,,,,,,,,
,,,,,070923,f,y,r,n,13,0,2025-04-04_13h13.06.137,VisualSearchFaces,2024.2.4,MacIntel,121.9512195,,,,,,,,963.4468,963.5538,963.5539,965.5537,block2,f,1,0.4093,,0,15,15,26,1,0,top_left,neutral,no_target,,,,,,,,,,,,,,,,
,,,,,070923,f,y,r,n,13,0,2025-04-04_13h13.06.137,VisualSearchFaces,2024.2.4,MacIntel,121.9512195,,,,,,,,966.5548,966.6538,966.6538,968.6533,block2,f,1,0.5676,,0,16,16,31,1,0,top_left,friendly,no_target,,,,,,,,,,,,,,,,
,,,,,070923,f,y,r,n,13,0,2025-04-04_13h13.06.137,VisualSearchFaces,2024.2.4,MacIntel,121.9512195,,,,,,,,969.6547,969.761,969.7611,971.7619,block2,f,0,0.5132,,0,17,17,16,1,1,top_left,threatening,neutral,,,,,,,,,,,,,,,,
,,,,,070923,f,y,r,n,13,0,2025-04-04_13h13.06.137,VisualSearchFaces,2024.2.4,MacIntel,121.9512195,,,,,,,,972.7632,972.8701,972.8702,974.8704,block2,f,1,0.4487,,0,18,18,28,1,0,bottom_left,neutral,no_target,,,,,,,,,,,,,,,,
,,,,,070923,f,y,r,n,13,0,2025-04-04_13h13.06.137,VisualSearchFaces,2024.2.4,MacIntel,121.9512195,,,,,,,,975.8718,975.9784,975.9784,977.9785,block2,f,1,0.4352,,0,19,19,25,1,0,centre,neutral,no_target,,,,,,,,,,,,,,,,
,,,,,070923,f,y,r,n,13,0,2025-04-04_13h13.06.137,VisualSearchFaces,2024.2.4,MacIntel,121.9512195,,,,,,,,978.98,979.087,979.0871,981.0869,block2,f,1,0.4752,,0,20,20,32,1,0,top_right,friendly,no_target,,,,,,,,,,,,,,,,
,,,,,070923,f,y,r,n,13,0,2025-04-04_13h13.06.137,VisualSearchFaces,2024.2.4,MacIntel,121.9512195,,,,,,,,982.088,982.1951,982.1952,984.1952,block2,f,0,0.3508,,0,21,21,17,1,1,top_right,threatening,neutral,,,,,,,,,,,,,,,,
,,,,,070923,f,y,r,n,13,0,2025-04-04_13h13.06.137,VisualSearchFaces,2024.2.4,MacIntel,121.9512195,,,,,,,,985.1969,985.3039,985.3039,987.3036,block2,f,0,0.3999,,0,22,22,0,1,1,centre,neutral,friendly,,,,,,,,,,,,,,,,
,,,,,070923,f,y,r,n,13,0,2025-04-04_13h13.06.137,VisualSearchFaces,2024.2.4,MacIntel,121.9512195,,,,,,,,988.3045,988.4108,988.4109,990.4117,block2,f,1,0.8256,,0,23,23,35,1,0,centre,threatening,no_target,,,,,,,,,,,,,,,,
,,,,,070923,f,y,r,n,13,0,2025-04-04_13h13.06.137,VisualSearchFaces,2024.2.4,MacIntel,121.9512195,,,,,,,,991.413,991.5203,991.5204,993.5201,block2,f,1,0.4859,,0,24,24,39,1,0,bottom_right,threatening,no_target,,,,,,,,,,,,,,,,
,,,,,070923,f,y,r,n,13,0,2025-04-04_13h13.06.137,VisualSearchFaces,2024.2.4,MacIntel,121.9512195,,,,,,,,994.5213,994.6283,994.6284,996.6284,block2,j,0,0.5079,,0,25,25,38,1,0,bottom_left,threatening,no_target,,,,,,,,,,,,,,,,
,,,,,070923,f,y,r,n,13,0,2025-04-04_13h13.06.137,VisualSearchFaces,2024.2.4,MacIntel,121.9512195,,,,,,,,997.6296,997.7283,997.7285,999.7282,block2,j,0,0.525,,0,26,26,34,1,0,bottom_right,friendly,no_target,,,,,,,,,,,,,,,,
,,,,,070923,f,y,r,n,13,0,2025-04-04_13h13.06.137,VisualSearchFaces,2024.2.4,MacIntel,121.9512195,,,,,,,,1000.7298,1000.8367,1000.8368,1002.8358,block2,f,1,0.4094,,0,27,27,27,1,0,top_right,neutral,no_target,,,,,,,,,,,,,,,,
,,,,,070923,f,y,r,n,13,0,2025-04-04_13h13.06.137,VisualSearchFaces,2024.2.4,MacIntel,121.9512195,,,,,,,,1003.8388,1003.9451,1003.9451,1005.9449,block2,f,1,0.6252,,0,28,28,37,1,0,top_right,threatening,no_target,,,,,,,,,,,,,,,,
,,,,,070923,f,y,r,n,13,0,2025-04-04_13h13.06.137,VisualSearchFaces,2024.2.4,MacIntel,121.9512195,,,,,,,,1006.946,1007.0447,1007.0448,1009.0452,block2,j,1,0.4419,,0,29,29,3,1,1,bottom_left,neutral,friendly,,,,,,,,,,,,,,,,
,,,,,070923,f,y,r,n,13,0,2025-04-04_13h13.06.137,VisualSearchFaces,2024.2.4,MacIntel,121.9512195,,,,,,,,1010.0455,1010.1536,1010.1536,1012.1533,block2,j,1,0.5001,,0,30,30,2,1,1,top_right,neutral,friendly,,,,,,,,,,,,,,,,
,,,,,070923,f,y,r,n,13,0,2025-04-04_13h13.06.137,VisualSearchFaces,2024.2.4,MacIntel,121.9512195,,,,,,,,1013.1547,1013.2617,1013.2619,1015.2619,block2,j,1,0.4164,,0,31,31,6,1,1,top_left,neutral,threatening,,,,,,,,,,,,,,,,
,,,,,070923,f,y,r,n,13,0,2025-04-04_13h13.06.137,VisualSearchFaces,2024.2.4,MacIntel,121.9512195,,,,,,,,1016.2633,1016.3702,1016.3702,1018.3699,block2,f,1,0.3424,,0,32,32,29,1,0,bottom_right,neutral,no_target,,,,,,,,,,,,,,,,
,,,,,070923,f,y,r,n,13,0,2025-04-04_13h13.06.137,VisualSearchFaces,2024.2.4,MacIntel,121.9512195,,,,,,,,1019.3726,1019.4782,1019.4783,1021.4783,block2,f,0,0.4125,,0,33,33,5,1,1,centre,neutral,threatening,,,,,,,,,,,,,,,,
,,,,,070923,f,y,r,n,13,0,2025-04-04_13h13.06.137,VisualSearchFaces,2024.2.4,MacIntel,121.9512195,,,,,,,,1022.4797,1022.586,1022.5861,1024.5865,block2,j,1,0.6337,,0,34,34,11,1,1,top_left,friendly,neutral,,,,,,,,,,,,,,,,
,,,,,070923,f,y,r,n,13,0,2025-04-04_13h13.06.137,VisualSearchFaces,2024.2.4,MacIntel,121.9512195,,,,,,,,1025.5881,1025.694,1025.6941,1027.6949,block2,f,1,0.4748,,0,35,35,33,1,0,bottom_left,friendly,no_target,,,,,,,,,,,,,,,,
,,,,,070923,f,y,r,n,13,0,2025-04-04_13h13.06.137,VisualSearchFaces,2024.2.4,MacIntel,121.9512195,,,,,,,,1028.6963,1028.8032,1028.8033,1030.8033,block2,f,1,0.3827,,0,36,36,24,1,0,bottom_right,neutral,no_target,,,,,,,,,,,,,,,,
,,,,,070923,f,y,r,n,13,0,2025-04-04_13h13.06.137,VisualSearchFaces,2024.2.4,MacIntel,121.9512195,,,,,,,,1031.8048,1031.9118,1031.9119,1033.9114,block2,j,1,0.3531,,0,37,37,8,1,1,bottom_left,neutral,threatening,,,,,,,,,,,,,,,,
,,,,,070923,f,y,r,n,13,0,2025-04-04_13h13.06.137,VisualSearchFaces,2024.2.4,MacIntel,121.9512195,,,,,,,,1034.9141,1035.0201,1035.0201,1037.0199,block2,f,1,0.4158,,0,38,38,21,1,0,top_left,neutral,no_target,,,,,,,,,,,,,,,,
,,,,,070923,f,y,r,n,13,0,2025-04-04_13h13.06.137,VisualSearchFaces,2024.2.4,MacIntel,121.9512195,,,,,,,,1038.0208,1038.12,1038.12,1040.1188,block2,f,1,0.3447,,0,39,39,23,1,0,bottom_left,neutral,no_target,,,,,,,,,,,,,,,,
,,,,,070923,f,y,r,n,13,0,2025-04-04_13h13.06.137,VisualSearchFaces,2024.2.4,MacIntel,121.9512195,,,,,,,,1041.1216,1041.2283,1041.2284,1043.2282,block2,j,1,0.3423,,1,0,40,14,1,1,bottom_right,friendly,neutral,,,,,,,,,,,,,,,,
,,,,,070923,f,y,r,n,13,0,2025-04-04_13h13.06.137,VisualSearchFaces,2024.2.4,MacIntel,121.9512195,,,,,,,,1044.2305,1044.3362,1044.3363,1046.3366,block2,f,1,0.3253,,1,1,41,29,1,0,bottom_right,neutral,no_target,,,,,,,,,,,,,,,,
,,,,,070923,f,y,r,n,13,0,2025-04-04_13h13.06.137,VisualSearchFaces,2024.2.4,MacIntel,121.9512195,,,,,,,,1047.3378,1047.4448,1047.4449,1049.4438,block2,f,1,0.4596,,1,2,42,39,1,0,bottom_right,threatening,no_target,,,,,,,,,,,,,,,,
,,,,,070923,f,y,r,n,13,0,2025-04-04_13h13.06.137,VisualSearchFaces,2024.2.4,MacIntel,121.9512195,,,,,,,,1050.4462,1050.5533,1050.5533,1052.5529,block2,j,1,0.5113,,1,3,43,0,1,1,centre,neutral,friendly,,,,,,,,,,,,,,,,
,,,,,070923,f,y,r,n,13,0,2025-04-04_13h13.06.137,VisualSearchFaces,2024.2.4,MacIntel,121.9512195,,,,,,,,1053.5546,1053.6613,1053.6614,1055.6614,block2,f,1,0.4419,,1,4,44,27,1,0,top_right,neutral,no_target,,,,,,,,,,,,,,,,
,,,,,070923,f,y,r,n,13,0,2025-04-04_13h13.06.137,VisualSearchFaces,2024.2.4,MacIntel,121.9512195,,,,,,,,1056.6636,1056.7699,1056.7699,1058.7698,block2,f,1,0.4264,,1,5,45,30,1,0,centre,friendly,no_target,,,,,,,,,,,,,,,,
,,,,,070923,f,y,r,n,13,0,2025-04-04_13h13.06.137,VisualSearchFaces,2024.2.4,MacIntel,121.9512195,,,,,,,,1059.7707,1059.8698,1059.8698,1061.8698,block2,f,0,0.2836,,1,6,46,16,1,1,top_left,threatening,neutral,,,,,,,,,,,,,,,,
,,,,,070923,f,y,r,n,13,0,2025-04-04_13h13.06.137,VisualSearchFaces,2024.2.4,MacIntel,121.9512195,,,,,,,,1062.8711,1062.9781,1062.9782,1064.9779,block2,j,1,0.3834,,1,7,47,4,1,1,bottom_right,neutral,friendly,,,,,,,,,,,,,,,,
,,,,,070923,f,y,r,n,13,0,2025-04-04_13h13.06.137,VisualSearchFaces,2024.2.4,MacIntel,121.9512195,,,,,,,,1065.9794,1066.0865,1066.0866,1068.0864,block2,f,1,0.5092,,1,8,48,33,1,0,bottom_left,friendly,no_target,,,,,,,,,,,,,,,,
,,,,,070923,f,y,r,n,13,0,2025-04-04_13h13.06.137,VisualSearchFaces,2024.2.4,MacIntel,121.9512195,,,,,,,,1069.0878,1069.1949,1069.195,1071.1949,block2,f,0,0.4598,,1,9,49,3,1,1,bottom_left,neutral,friendly,,,,,,,,,,,,,,,,
,,,,,070923,f,y,r,n,13,0,2025-04-04_13h13.06.137,VisualSearchFaces,2024.2.4,MacIntel,121.9512195,,,,,,,,1072.1959,1072.3029,1072.303,1074.3029,block2,f,1,0.6092,,1,10,50,26,1,0,top_left,neutral,no_target,,,,,,,,,,,,,,,,
,,,,,070923,f,y,r,n,13,0,2025-04-04_13h13.06.137,VisualSearchFaces,2024.2.4,MacIntel,121.9512195,,,,,,,,1075.3044,1075.4115,1075.4115,1077.4113,block2,f,1,0.4514,,1,11,51,25,1,0,centre,neutral,no_target,,,,,,,,,,,,,,,,
,,,,,070923,f,y,r,n,13,0,2025-04-04_13h13.06.137,VisualSearchFaces,2024.2.4,MacIntel,121.9512195,,,,,,,,1078.4126,1078.5189,1078.519,1080.5196,block2,j,1,0.4008,,1,12,52,17,1,1,top_right,threatening,neutral,,,,,,,,,,,,,,,,
,,,,,070923,f,y,r,n,13,0,2025-04-04_13h13.06.137,VisualSearchFaces,2024.2.4,MacIntel,121.9512195,,,,,,,,1081.5212,1081.6282,1081.6283,1083.6278,block2,f,0,0.4994,,1,13,53,10,1,1,centre,friendly,neutral,,,,,,,,,,,,,,,,
,,,,,070923,f,y,r,n,13,0,2025-04-04_13h13.06.137,VisualSearchFaces,2024.2.4,MacIntel,121.9512195,,,,,,,,1084.629,1084.7364,1084.7365,1086.7356,block2,f,1,0.4251,,1,14,54,22,1,0,top_right,neutral,no_target,,,,,,,,,,,,,,,,
,,,,,070923,f,y,r,n,13,0,2025-04-04_13h13.06.137,VisualSearchFaces,2024.2.4,MacIntel,121.9512195,,,,,,,,1087.7375,1087.8447,1087.8449,1089.8438,block2,f,1,0.5743,,1,15,55,38,1,0,bottom_left,threatening,no_target,,,,,,,,,,,,,,,,
,,,,,070923,f,y,r,n,13,0,2025-04-04_13h13.06.137,VisualSearchFaces,2024.2.4,MacIntel,121.9512195,,,,,,,,1090.8462,1090.9531,1090.9531,1092.9531,block2,j,1,0.3897,,1,16,56,19,1,1,bottom_right,threatening,neutral,,,,,,,,,,,,,,,,
,,,,,070923,f,y,r,n,13,0,2025-04-04_13h13.06.137,VisualSearchFaces,2024.2.4,MacIntel,121.9512195,,,,,,,,1093.9553,1094.0612,1094.0612,1096.0611,block2,j,1,0.7006,,1,17,57,13,1,1,bottom_left,friendly,neutral,,,,,,,,,,,,,,,,
,,,,,070923,f,y,r,n,13,0,2025-04-04_13h13.06.137,VisualSearchFaces,2024.2.4,MacIntel,121.9512195,,,,,,,,1097.0621,1097.1612,1097.1613,1099.1611,block2,f,1,0.6414,,1,18,58,32,1,0,top_right,friendly,no_target,,,,,,,,,,,,,,,,
,,,,,070923,f,y,r,n,13,0,2025-04-04_13h13.06.137,VisualSearchFaces,2024.2.4,MacIntel,121.9512195,,,,,,,,1100.1616,1100.2612,1100.2614,1102.2612,block2,f,0,0.4883,,1,19,59,11,1,1,top_left,friendly,neutral,,,,,,,,,,,,,,,,
,,,,,070923,f,y,r,n,13,0,2025-04-04_13h13.06.137,VisualSearchFaces,2024.2.4,MacIntel,121.9512195,,,,,,,,1103.2631,1103.3698,1103.3699,1105.3696,block2,j,1,0.4005,,1,20,60,2,1,1,top_right,neutral,friendly,,,,,,,,,,,,,,,,
,,,,,070923,f,y,r,n,13,0,2025-04-04_13h13.06.137,VisualSearchFaces,2024.2.4,MacIntel,121.9512195,,,,,,,,1106.37,1106.4781,1106.4781,1108.4771,block2,f,1,0.351,,1,21,61,28,1,0,bottom_left,neutral,no_target,,,,,,,,,,,,,,,,
,,,,,070923,f,y,r,n,13,0,2025-04-04_13h13.06.137,VisualSearchFaces,2024.2.4,MacIntel,121.9512195,,,,,,,,1109.4794,1109.5782,1109.5782,1111.5778,block2,j,1,0.3451,,1,22,62,8,1,1,bottom_left,neutral,threatening,,,,,,,,,,,,,,,,
,,,,,070923,f,y,r,n,13,0,2025-04-04_13h13.06.137,VisualSearchFaces,2024.2.4,MacIntel,121.9512195,,,,,,,,1112.5791,1112.6862,1112.6863,1114.6862,block2,j,1,0.3331,,1,23,63,6,1,1,top_left,neutral,threatening,,,,,,,,,,,,,,,,
,,,,,070923,f,y,r,n,13,0,2025-04-04_13h13.06.137,VisualSearchFaces,2024.2.4,MacIntel,121.9512195,,,,,,,,1115.6872,1115.7944,1115.7945,1117.7939,block2,j,0,0.5505,,1,24,64,34,1,0,bottom_right,friendly,no_target,,,,,,,,,,,,,,,,
,,,,,070923,f,y,r,n,13,0,2025-04-04_13h13.06.137,VisualSearchFaces,2024.2.4,MacIntel,121.9512195,,,,,,,,1118.797,1118.9028,1118.9029,1120.903,block2,f,0,0.4909,,1,25,65,7,1,1,top_right,neutral,threatening,,,,,,,,,,,,,,,,
,,,,,070923,f,y,r,n,13,0,2025-04-04_13h13.06.137,VisualSearchFaces,2024.2.4,MacIntel,121.9512195,,,,,,,,1121.9042,1122.011,1122.0111,1124.0112,block2,f,1,0.4928,,1,26,66,35,1,0,centre,threatening,no_target,,,,,,,,,,,,,,,,
,,,,,070923,f,y,r,n,13,0,2025-04-04_13h13.06.137,VisualSearchFaces,2024.2.4,MacIntel,121.9512195,,,,,,,,1125.0122,1125.1195,1125.1195,1127.1193,block2,f,1,0.5341,,1,27,67,37,1,0,top_right,threatening,no_target,,,,,,,,,,,,,,,,
,,,,,070923,f,y,r,n,13,0,2025-04-04_13h13.06.137,VisualSearchFaces,2024.2.4,MacIntel,121.9512195,,,,,,,,1128.1212,1128.2271,1128.2273,1130.2277,block2,f,1,0.4011,,1,28,68,23,1,0,bottom_left,neutral,no_target,,,,,,,,,,,,,,,,
,,,,,070923,f,y,r,n,13,0,2025-04-04_13h13.06.137,VisualSearchFaces,2024.2.4,MacIntel,121.9512195,,,,,,,,1131.2293,1131.328,1131.328,1133.3278,block2,f,1,0.4126,,1,29,69,24,1,0,bottom_right,neutral,no_target,,,,,,,,,,,,,,,,
,,,,,070923,f,y,r,n,13,0,2025-04-04_13h13.06.137,VisualSearchFaces,2024.2.4,MacIntel,121.9512195,,,,,,,,1134.3289,1134.4359,1134.436,1136.4359,block2,f,1,0.4668,,1,30,70,36,1,0,top_left,threatening,no_target,,,,,,,,,,,,,,,,
,,,,,070923,f,y,r,n,13,0,2025-04-04_13h13.06.137,VisualSearchFaces,2024.2.4,MacIntel,121.9512195,,,,,,,,1137.4371,1137.5361,1137.5362,1139.5359,block2,f,0,0.3415,,1,31,71,18,1,1,bottom_left,threatening,neutral,,,,,,,,,,,,,,,,
,,,,,070923,f,y,r,n,13,0,2025-04-04_13h13.06.137,VisualSearchFaces,2024.2.4,MacIntel,121.9512195,,,,,,,,1140.5377,1140.6443,1140.6444,1142.6436,block2,j,0,0.4494,,1,32,72,31,1,0,top_left,friendly,no_target,,,,,,,,,,,,,,,,
,,,,,070923,f,y,r,n,13,0,2025-04-04_13h13.06.137,VisualSearchFaces,2024.2.4,MacIntel,121.9512195,,,,,,,,1143.6455,1143.7526,1143.7526,1145.7526,block2,j,1,0.5412,,1,33,73,15,1,1,centre,threatening,neutral,,,,,,,,,,,,,,,,
,,,,,070923,f,y,r,n,13,0,2025-04-04_13h13.06.137,VisualSearchFaces,2024.2.4,MacIntel,121.9512195,,,,,,,,1146.7541,1146.8608,1146.8609,1148.8607,block2,f,1,0.2956,,1,34,74,21,1,0,top_left,neutral,no_target,,,,,,,,,,,,,,,,
,,,,,070923,f,y,r,n,13,0,2025-04-04_13h13.06.137,VisualSearchFaces,2024.2.4,MacIntel,121.9512195,,,,,,,,1149.8621,1149.9685,1149.9685,1151.9694,block2,f,1,0.36,,1,35,75,20,1,0,centre,neutral,no_target,,,,,,,,,,,,,,,,
,,,,,070923,f,y,r,n,13,0,2025-04-04_13h13.06.137,VisualSearchFaces,2024.2.4,MacIntel,121.9512195,,,,,,,,1152.9702,1153.0777,1153.0778,1155.0775,block2,j,1,0.3327,,1,36,76,9,1,1,bottom_right,neutral,threatening,,,,,,,,,,,,,,,,
,,,,,070923,f,y,r,n,13,0,2025-04-04_13h13.06.137,VisualSearchFaces,2024.2.4,MacIntel,121.9512195,,,,,,,,1156.0798,1156.1858,1156.1859,1158.186,block2,j,1,0.4849,,1,37,77,12,1,1,top_right,friendly,neutral,,,,,,,,,,,,,,,,
,,,,,070923,f,y,r,n,13,0,2025-04-04_13h13.06.137,VisualSearchFaces,2024.2.4,MacIntel,121.9512195,,,,,,,,1159.1875,1159.2942,1159.2943,1161.2936,block2,j,1,0.3662,,1,38,78,5,1,1,centre,neutral,threatening,,,,,,,,,,,,,,,,
,,,,,070923,f,y,r,n,13,0,2025-04-04_13h13.06.137,VisualSearchFaces,2024.2.4,MacIntel,121.9512195,,,,,,,,1162.296,1162.4027,1162.4027,1164.4025,block2,j,1,0.4262,,1,39,79,1,1,1,top_left,neutral,friendly,,,,,,,,,,,,,,,,
,,,,,070923,f,y,r,n,13,0,2025-04-04_13h13.06.137,VisualSearchFaces,2024.2.4,MacIntel,121.9512195,,,1434.2292,1440.9515,space,6.7139,,1441.9526,1442.0595,1442.0596,1444.0594,block3,j,1,0.5417,,0,0,0,12,1,1,top_right,friendly,neutral,1164.4043,1434.2266,space,269.8085,,,,,,,,,,,,
,,,,,070923,f,y,r,n,13,0,2025-04-04_13h13.06.137,VisualSearchFaces,2024.2.4,MacIntel,121.9512195,,,,,,,,1445.0612,1445.168,1445.1682,1447.1676,block3,f,1,0.4087,,0,1,1,22,1,0,top_right,neutral,no_target,,,,,,,,,,,,,,,,
,,,,,070923,f,y,r,n,13,0,2025-04-04_13h13.06.137,VisualSearchFaces,2024.2.4,MacIntel,121.9512195,,,,,,,,1448.1686,1448.2678,1448.2679,1450.2677,block3,j,1,0.4086,,0,2,2,8,1,1,bottom_left,neutral,threatening,,,,,,,,,,,,,,,,
,,,,,070923,f,y,r,n,13,0,2025-04-04_13h13.06.137,VisualSearchFaces,2024.2.4,MacIntel,121.9512195,,,,,,,,1451.269,1451.376,1451.3761,1453.376,block3,f,1,0.4662,,0,3,3,30,1,0,centre,friendly,no_target,,,,,,,,,,,,,,,,
,,,,,070923,f,y,r,n,13,0,2025-04-04_13h13.06.137,VisualSearchFaces,2024.2.4,MacIntel,121.9512195,,,,,,,,1454.3773,1454.4845,1454.4845,1456.4843,block3,j,1,1.0656,,0,4,4,13,1,1,bottom_left,friendly,neutral,,,,,,,,,,,,,,,,
,,,,,070923,f,y,r,n,13,0,2025-04-04_13h13.06.137,VisualSearchFaces,2024.2.4,MacIntel,121.9512195,,,,,,,,1457.486,1457.592,1457.592,1459.5927,block3,f,1,0.7513,,0,5,5,39,1,0,bottom_right,threatening,no_target,,,,,,,,,,,,,,,,
,,,,,070923,f,y,r,n,13,0,2025-04-04_13h13.06.137,VisualSearchFaces,2024.2.4,MacIntel,121.9512195,,,,,,,,1460.5954,1460.7002,1460.7003,1462.7011,block3,f,1,0.3954,,0,6,6,24,1,0,bottom_right,neutral,no_target,,,,,,,,,,,,,,,,
,,,,,070923,f,y,r,n,13,0,2025-04-04_13h13.06.137,VisualSearchFaces,2024.2.4,MacIntel,121.9512195,,,,,,,,1463.7016,1463.8011,1463.8012,1465.8009,block3,f,1,0.3916,,0,7,7,26,1,0,top_left,neutral,no_target,,,,,,,,,,,,,,,,
,,,,,070923,f,y,r,n,13,0,2025-04-04_13h13.06.137,VisualSearchFaces,2024.2.4,MacIntel,121.9512195,,,,,,,,1466.8022,1466.9086,1466.9088,1468.9085,block3,f,1,0.3678,,0,8,8,29,1,0,bottom_right,neutral,no_target,,,,,,,,,,,,,,,,
,,,,,070923,f,y,r,n,13,0,2025-04-04_13h13.06.137,VisualSearchFaces,2024.2.4,MacIntel,121.9512195,,,,,,,,1469.9106,1470.0177,1470.0177,1472.0173,block3,f,1,0.3763,,0,9,9,25,1,0,centre,neutral,no_target,,,,,,,,,,,,,,,,
,,,,,070923,f,y,r,n,13,0,2025-04-04_13h13.06.137,VisualSearchFaces,2024.2.4,MacIntel,121.9512195,,,,,,,,1473.019,1473.126,1473.126,1475.1261,block3,j,1,0.3539,,0,10,10,1,1,1,top_left,neutral,friendly,,,,,,,,,,,,,,,,
,,,,,070923,f,y,r,n,13,0,2025-04-04_13h13.06.137,VisualSearchFaces,2024.2.4,MacIntel,121.9512195,,,,,,,,1476.1273,1476.2344,1476.2344,1478.2345,block3,f,0,0.6845,,0,11,11,17,1,1,top_right,threatening,neutral,,,,,,,,,,,,,,,,
,,,,,070923,f,y,r,n,13,0,2025-04-04_13h13.06.137,VisualSearchFaces,2024.2.4,MacIntel,121.9512195,,,,,,,,1479.2356,1479.3428,1479.3429,1481.3427,block3,j,0,0.6915,,0,12,12,36,1,0,top_left,threatening,no_target,,,,,,,,,,,,,,,,
,,,,,070923,f,y,r,n,13,0,2025-04-04_13h13.06.137,VisualSearchFaces,2024.2.4,MacIntel,121.9512195,,,,,,,,1482.3452,1482.451,1482.4511,1484.4508,block3,f,1,0.3829,,0,13,13,23,1,0,bottom_left,neutral,no_target,,,,,,,,,,,,,,,,
,,,,,070923,f,y,r,n,13,0,2025-04-04_13h13.06.137,VisualSearchFaces,2024.2.4,MacIntel,121.9512195,,,,,,,,1485.4521,1485.5511,1485.5512,1487.55,block3,f,1,0.552,,0,14,14,33,1,0,bottom_left,friendly,no_target,,,,,,,,,,,,,,,,
,,,,,070923,f,y,r,n,13,0,2025-04-04_13h13.06.137,VisualSearchFaces,2024.2.4,MacIntel,121.9512195,,,,,,,,1488.552,1488.6593,1488.6594,1490.6589,block3,j,1,0.4083,,0,15,15,4,1,1,bottom_right,neutral,friendly,,,,,,,,,,,,,,,,
,,,,,070923,f,y,r,n,13,0,2025-04-04_13h13.06.137,VisualSearchFaces,2024.2.4,MacIntel,121.9512195,,,,,,,,1491.6614,1491.7675,1491.7677,1493.7674,block3,j,1,0.46,,0,16,16,2,1,1,top_right,neutral,friendly,,,,,,,,,,,,,,,,
,,,,,070923,f,y,r,n,13,0,2025-04-04_13h13.06.137,VisualSearchFaces,2024.2.4,MacIntel,121.9512195,,,,,,,,1494.7688,1494.8759,1494.876,1496.8759,block3,f,0,0.5369,,0,17,17,5,1,1,centre,neutral,threatening,,,,,,,,,,,,,,,,
,,,,,070923,f,y,r,n,13,0,2025-04-04_13h13.06.137,VisualSearchFaces,2024.2.4,MacIntel,121.9512195,,,,,,,,1497.8776,1497.9843,1497.9844,1499.9842,block3,j,1,0.4667,,0,18,18,9,1,1,bottom_right,neutral,threatening,,,,,,,,,,,,,,,,
,,,,,070923,f,y,r,n,13,0,2025-04-04_13h13.06.137,VisualSearchFaces,2024.2.4,MacIntel,121.9512195,,,,,,,,1500.9854,1501.0925,1501.0925,1503.0927,block3,j,1,0.3502,,0,19,19,3,1,1,bottom_left,neutral,friendly,,,,,,,,,,,,,,,,
,,,,,070923,f,y,r,n,13,0,2025-04-04_13h13.06.137,VisualSearchFaces,2024.2.4,MacIntel,121.9512195,,,,,,,,1504.0949,1504.2008,1504.2009,1506.2009,block3,j,1,0.5336,,0,20,20,18,1,1,bottom_left,threatening,neutral,,,,,,,,,,,,,,,,
,,,,,070923,f,y,r,n,13,0,2025-04-04_13h13.06.137,VisualSearchFaces,2024.2.4,MacIntel,121.9512195,,,,,,,,1507.2022,1507.3091,1507.3092,1509.3082,block3,f,1,1.8914,,0,21,21,37,1,0,top_right,threatening,no_target,,,,,,,,,,,,,,,,
,,,,,070923,f,y,r,n,13,0,2025-04-04_13h13.06.137,VisualSearchFaces,2024.2.4,MacIntel,121.9512195,,,,,,,,1510.3104,1510.4174,1510.4174,1512.413,block3,f,1,0.4756,,0,22,22,21,1,0,top_left,neutral,no_target,,,,,,,,,,,,,,,,
,,,,,070923,f,y,r,n,13,0,2025-04-04_13h13.06.137,VisualSearchFaces,2024.2.4,MacIntel,121.9512195,,,,,,,,1513.415,1513.5215,1513.5216,1515.5218,block3,f,1,0.5286,,0,23,23,34,1,0,bottom_right,friendly,no_target,,,,,,,,,,,,,,,,
,,,,,070923,f,y,r,n,13,0,2025-04-04_13h13.06.137,VisualSearchFaces,2024.2.4,MacIntel,121.9512195,,,,,,,,1516.5231,1516.6291,1516.6291,1518.6291,block3,j,1,0.3342,,0,24,24,7,1,1,top_right,neutral,threatening,,,,,,,,,,,,,,,,
,,,,,070923,f,y,r,n,13,0,2025-04-04_13h13.06.137,VisualSearchFaces,2024.2.4,MacIntel,121.9512195,,,,,,,,1519.6314,1519.7384,1519.7385,1521.7381,block3,f,1,0.475,,0,25,25,38,1,0,bottom_left,threatening,no_target,,,,,,,,,,,,,,,,
,,,,,070923,f,y,r,n,13,0,2025-04-04_13h13.06.137,VisualSearchFaces,2024.2.4,MacIntel,121.9512195,,,,,,,,1522.7398,1522.8466,1522.8467,1524.8464,block3,f,1,0.4758,,0,26,26,27,1,0,top_right,neutral,no_target,,,,,,,,,,,,,,,,
,,,,,070923,f,y,r,n,13,0,2025-04-04_13h13.06.137,VisualSearchFaces,2024.2.4,MacIntel,121.9512195,,,,,,,,1525.848,1525.9551,1525.9552,1527.9547,block3,f,1,0.5918,,0,27,27,28,1,0,bottom_left,neutral,no_target,,,,,,,,,,,,,,,,
,,,,,070923,f,y,r,n,13,0,2025-04-04_13h13.06.137,VisualSearchFaces,2024.2.4,MacIntel,121.9512195,,,,,,,,1528.9572,1529.0632,1529.0632,1531.0632,block3,j,1,0.3712,,0,28,28,0,1,1,centre,neutral,friendly,,,,,,,,,,,,,,,,
,,,,,070923,f,y,r,n,13,0,2025-04-04_13h13.06.137,VisualSearchFaces,2024.2.4,MacIntel,121.9512195,,,,,,,,1532.0638,1532.1629,1532.163,1534.1632,block3,f,1,0.8474,,0,29,29,31,1,0,top_left,friendly,no_target,,,,,,,,,,,,,,,,
,,,,,070923,f,y,r,n,13,0,2025-04-04_13h13.06.137,VisualSearchFaces,2024.2.4,MacIntel,121.9512195,,,,,,,,1535.1639,1535.2633,1535.2634,1537.263,block3,j,1,0.4788,,0,30,30,6,1,1,top_left,neutral,threatening,,,,,,,,,,,,,,,,
,,,,,070923,f,y,r,n,13,0,2025-04-04_13h13.06.137,VisualSearchFaces,2024.2.4,MacIntel,121.9512195,,,,,,,,1538.2648,1538.3673,1538.3674,1540.3664,block3,f,1,0.3746,,0,31,31,35,1,0,centre,threatening,no_target,,,,,,,,,,,,,,,,
,,,,,070923,f,y,r,n,13,0,2025-04-04_13h13.06.137,VisualSearchFaces,2024.2.4,MacIntel,121.9512195,,,,,,,,1541.3683,1541.4756,1541.4756,1543.4715,block3,j,1,0.3744,,0,32,32,10,1,1,centre,friendly,neutral,,,,,,,,,,,,,,,,
,,,,,070923,f,y,r,n,13,0,2025-04-04_13h13.06.137,VisualSearchFaces,2024.2.4,MacIntel,121.9512195,,,,,,,,1544.4726,1544.5799,1544.58,1546.5798,block3,f,1,0.5013,,0,33,33,32,1,0,top_right,friendly,no_target,,,,,,,,,,,,,,,,
,,,,,070923,f,y,r,n,13,0,2025-04-04_13h13.06.137,VisualSearchFaces,2024.2.4,MacIntel,121.9512195,,,,,,,,1547.581,1547.6871,1547.6871,1549.6882,block3,j,1,0.3471,,0,34,34,19,1,1,bottom_right,threatening,neutral,,,,,,,,,,,,,,,,
,,,,,070923,f,y,r,n,13,0,2025-04-04_13h13.06.137,VisualSearchFaces,2024.2.4,MacIntel,121.9512195,,,,,,,,1550.6852,1550.7924,1550.7926,1552.7921,block3,j,1,0.426,,0,35,35,14,1,1,bottom_right,friendly,neutral,,,,,,,,,,,,,,,,
,,,,,070923,f,y,r,n,13,0,2025-04-04_13h13.06.137,VisualSearchFaces,2024.2.4,MacIntel,121.9512195,,,,,,,,1553.7936,1553.9,1553.9,1555.9007,block3,j,1,0.8013,,0,36,36,16,1,1,top_left,threatening,neutral,,,,,,,,,,,,,,,,
,,,,,070923,f,y,r,n,13,0,2025-04-04_13h13.06.137,VisualSearchFaces,2024.2.4,MacIntel,121.9512195,,,,,,,,1556.9027,1557.009,1557.009,1559.0088,block3,j,1,0.508,,0,37,37,11,1,1,top_left,friendly,neutral,,,,,,,,,,,,,,,,
,,,,,070923,f,y,r,n,13,0,2025-04-04_13h13.06.137,VisualSearchFaces,2024.2.4,MacIntel,121.9512195,,,,,,,,1560.0062,1560.113,1560.113,1562.1132,block3,f,1,0.413,,0,38,38,20,1,0,centre,neutral,no_target,,,,,,,,,,,,,,,,
,,,,,070923,f,y,r,n,13,0,2025-04-04_13h13.06.137,VisualSearchFaces,2024.2.4,MacIntel,121.9512195,,,,,,,,1563.1149,1563.2215,1563.2217,1565.2213,block3,j,1,0.3755,,0,39,39,15,1,1,centre,threatening,neutral,,,,,,,,,,,,,,,,
,,,,,070923,f,y,r,n,13,0,2025-04-04_13h13.06.137,VisualSearchFaces,2024.2.4,MacIntel,121.9512195,,,,,,,,1566.2225,1566.3214,1566.3215,1568.3171,block3,f,1,0.7844,,1,0,40,34,1,0,bottom_right,friendly,no_target,,,,,,,,,,,,,,,,
,,,,,070923,f,y,r,n,13,0,2025-04-04_13h13.06.137,VisualSearchFaces,2024.2.4,MacIntel,121.9512195,,,,,,,,1569.3196,1569.4246,1569.4247,1571.4255,block3,f,1,0.4934,,1,1,41,35,1,0,centre,threatening,no_target,,,,,,,,,,,,,,,,
,,,,,070923,f,y,r,n,13,0,2025-04-04_13h13.06.137,VisualSearchFaces,2024.2.4,MacIntel,121.9512195,,,,,,,,1572.4271,1572.5256,1572.5256,1574.5254,block3,j,1,0.4176,,1,2,42,6,1,1,top_left,neutral,threatening,,,,,,,,,,,,,,,,
,,,,,070923,f,y,r,n,13,0,2025-04-04_13h13.06.137,VisualSearchFaces,2024.2.4,MacIntel,121.9512195,,,,,,,,1575.5261,1575.6254,1575.6255,1577.6256,block3,f,1,0.4095,,1,3,43,31,1,0,top_left,friendly,no_target,,,,,,,,,,,,,,,,
,,,,,070923,f,y,r,n,13,0,2025-04-04_13h13.06.137,VisualSearchFaces,2024.2.4,MacIntel,121.9512195,,,,,,,,1578.6272,1578.734,1578.7341,1580.7337,block3,f,1,0.3334,,1,4,44,25,1,0,centre,neutral,no_target,,,,,,,,,,,,,,,,
,,,,,070923,f,y,r,n,13,0,2025-04-04_13h13.06.137,VisualSearchFaces,2024.2.4,MacIntel,121.9512195,,,,,,,,1581.7351,1581.8414,1581.8415,1583.8421,block3,f,1,0.6831,,1,5,45,32,1,0,top_right,friendly,no_target,,,,,,,,,,,,,,,,
,,,,,070923,f,y,r,n,13,0,2025-04-04_13h13.06.137,VisualSearchFaces,2024.2.4,MacIntel,121.9512195,,,,,,,,1584.8435,1584.9505,1584.9505,1586.95,block3,f,1,0.3515,,1,6,46,39,1,0,bottom_right,threatening,no_target,,,,,,,,,,,,,,,,
,,,,,070923,f,y,r,n,13,0,2025-04-04_13h13.06.137,VisualSearchFaces,2024.2.4,MacIntel,121.9512195,,,,,,,,1587.951,1588.0588,1588.0589,1590.0589,block3,j,1,0.7096,,1,7,47,13,1,1,bottom_left,friendly,neutral,,,,,,,,,,,,,,,,
,,,,,070923,f,y,r,n,13,0,2025-04-04_13h13.06.137,VisualSearchFaces,2024.2.4,MacIntel,121.9512195,,,,,,,,1591.0602,1591.1671,1591.1671,1593.167,block3,f,1,0.601,,1,8,48,38,1,0,bottom_left,threatening,no_target,,,,,,,,,,,,,,,,
,,,,,070923,f,y,r,n,13,0,2025-04-04_13h13.06.137,VisualSearchFaces,2024.2.4,MacIntel,121.9512195,,,,,,,,1594.1675,1594.2671,1594.2672,1596.2669,block3,f,1,0.3935,,1,9,49,26,1,0,top_left,neutral,no_target,,,,,,,,,,,,,,,,
,,,,,070923,f,y,r,n,13,0,2025-04-04_13h13.06.137,VisualSearchFaces,2024.2.4,MacIntel,121.9512195,,,,,,,,1597.2686,1597.3754,1597.3755,1599.3754,block3,j,1,0.625,,1,10,50,19,1,1,bottom_right,threatening,neutral,,,,,,,,,,,,,,,,
,,,,,070923,f,y,r,n,13,0,2025-04-04_13h13.06.137,VisualSearchFaces,2024.2.4,MacIntel,121.9512195,,,,,,,,1600.3769,1600.4827,1600.4828,1602.4827,block3,f,1,0.394,,1,11,51,21,1,0,top_left,neutral,no_target,,,,,,,,,,,,,,,,
,,,,,070923,f,y,r,n,13,0,2025-04-04_13h13.06.137,VisualSearchFaces,2024.2.4,MacIntel,121.9512195,,,,,,,,1603.4853,1603.592,1603.592,1605.5921,block3,j,1,0.7413,,1,12,52,12,1,1,top_right,friendly,neutral,,,,,,,,,,,,,,,,
,,,,,070923,f,y,r,n,13,0,2025-04-04_13h13.06.137,VisualSearchFaces,2024.2.4,MacIntel,121.9512195,,,,,,,,1606.5931,1606.6994,1606.6995,1608.6995,block3,j,1,0.9108,,1,13,53,18,1,1,bottom_left,threatening,neutral,,,,,,,,,,,,,,,,
,,,,,070923,f,y,r,n,13,0,2025-04-04_13h13.06.137,VisualSearchFaces,2024.2.4,MacIntel,121.9512195,,,,,,,,1609.7018,1609.8086,1609.8087,1611.8087,block3,f,1,0.3585,,1,14,54,27,1,0,top_right,neutral,no_target,,,,,,,,,,,,,,,,
,,,,,070923,f,y,r,n,13,0,2025-04-04_13h13.06.137,VisualSearchFaces,2024.2.4,MacIntel,121.9512195,,,,,,,,1612.81,1612.9172,1612.9172,1614.916,block3,j,1,0.3747,,1,15,55,2,1,1,top_right,neutral,friendly,,,,,,,,,,,,,,,,
,,,,,070923,f,y,r,n,13,0,2025-04-04_13h13.06.137,VisualSearchFaces,2024.2.4,MacIntel,121.9512195,,,,,,,,1615.9182,1616.0252,1616.0253,1618.0253,block3,j,1,0.4937,,1,16,56,1,1,1,top_left,neutral,friendly,,,,,,,,,,,,,,,,
,,,,,070923,f,y,r,n,13,0,2025-04-04_13h13.06.137,VisualSearchFaces,2024.2.4,MacIntel,121.9512195,,,,,,,,1619.0262,1619.1254,1619.1254,1621.1244,block3,j,1,0.3509,,1,17,57,7,1,1,top_right,neutral,threatening,,,,,,,,,,,,,,,,
,,,,,070923,f,y,r,n,13,0,2025-04-04_13h13.06.137,VisualSearchFaces,2024.2.4,MacIntel,121.9512195,,,,,,,,1622.1273,1622.2326,1622.2328,1624.2333,block3,f,1,0.4619,,1,18,58,29,1,0,bottom_right,neutral,no_target,,,,,,,,,,,,,,,,
,,,,,070923,f,y,r,n,13,0,2025-04-04_13h13.06.137,VisualSearchFaces,2024.2.4,MacIntel,121.9512195,,,,,,,,1625.2347,1625.342,1625.342,1627.342,block3,f,1,0.635,,1,19,59,30,1,0,centre,friendly,no_target,,,,,,,,,,,,,,,,
,,,,,070923,f,y,r,n,13,0,2025-04-04_13h13.06.137,VisualSearchFaces,2024.2.4,MacIntel,121.9512195,,,,,,,,1628.3434,1628.4502,1628.4503,1630.4503,block3,j,1,0.399,,1,20,60,16,1,1,top_left,threatening,neutral,,,,,,,,,,,,,,,,
,,,,,070923,f,y,r,n,13,0,2025-04-04_13h13.06.137,VisualSearchFaces,2024.2.4,MacIntel,121.9512195,,,,,,,,1631.4517,1631.5583,1631.5583,1633.5585,block3,j,1,0.6171,,1,21,61,3,1,1,bottom_left,neutral,friendly,,,,,,,,,,,,,,,,
,,,,,070923,f,y,r,n,13,0,2025-04-04_13h13.06.137,VisualSearchFaces,2024.2.4,MacIntel,121.9512195,,,,,,,,1634.5598,1634.6662,1634.6662,1636.6668,block3,f,0,0.5173,,1,22,62,15,1,1,centre,threatening,neutral,,,,,,,,,,,,,,,,
,,,,,070923,f,y,r,n,13,0,2025-04-04_13h13.06.137,VisualSearchFaces,2024.2.4,MacIntel,121.9512195,,,,,,,,1637.6681,1637.7754,1637.7755,1639.7752,block3,f,1,0.5074,,1,23,63,36,1,0,top_left,threatening,no_target,,,,,,,,,,,,,,,,
,,,,,070923,f,y,r,n,13,0,2025-04-04_13h13.06.137,VisualSearchFaces,2024.2.4,MacIntel,121.9512195,,,,,,,,1640.7763,1640.875,1640.8752,1642.8742,block3,j,1,0.4745,,1,24,64,10,1,1,centre,friendly,neutral,,,,,,,,,,,,,,,,
,,,,,070923,f,y,r,n,13,0,2025-04-04_13h13.06.137,VisualSearchFaces,2024.2.4,MacIntel,121.9512195,,,,,,,,1643.8764,1643.9834,1643.9834,1645.9836,block3,f,1,0.3854,,1,25,65,22,1,0,top_right,neutral,no_target,,,,,,,,,,,,,,,,
,,,,,070923,f,y,r,n,13,0,2025-04-04_13h13.06.137,VisualSearchFaces,2024.2.4,MacIntel,121.9512195,,,,,,,,1646.9845,1647.092,1647.0921,1649.0918,block3,j,1,0.3759,,1,26,66,9,1,1,bottom_right,neutral,threatening,,,,,,,,,,,,,,,,
,,,,,070923,f,y,r,n,13,0,2025-04-04_13h13.06.137,VisualSearchFaces,2024.2.4,MacIntel,121.9512195,,,,,,,,1650.0932,1650.1996,1650.1997,1652.2001,block3,f,1,0.5006,,1,27,67,37,1,0,top_right,threatening,no_target,,,,,,,,,,,,,,,,
,,,,,070923,f,y,r,n,13,0,2025-04-04_13h13.06.137,VisualSearchFaces,2024.2.4,MacIntel,121.9512195,,,,,,,,1653.2014,1653.3085,1653.3085,1655.3084,block3,j,1,0.3952,,1,28,68,0,1,1,centre,neutral,friendly,,,,,,,,,,,,,,,,
,,,,,070923,f,y,r,n,13,0,2025-04-04_13h13.06.137,VisualSearchFaces,2024.2.4,MacIntel,121.9512195,,,,,,,,1656.3092,1656.4168,1656.4169,1658.4168,block3,f,1,0.5335,,1,29,69,23,1,0,bottom_left,neutral,no_target,,,,,,,,,,,,,,,,
,,,,,070923,f,y,r,n,13,0,2025-04-04_13h13.06.137,VisualSearchFaces,2024.2.4,MacIntel,121.9512195,,,,,,,,1659.418,1659.5246,1659.5246,1661.5251,block3,f,1,0.4124,,1,30,70,33,1,0,bottom_left,friendly,no_target,,,,,,,,,,,,,,,,
,,,,,070923,f,y,r,n,13,0,2025-04-04_13h13.06.137,VisualSearchFaces,2024.2.4,MacIntel,121.9512195,,,,,,,,1662.5262,1662.6333,1662.6333,1664.6333,block3,j,1,0.4176,,1,31,71,14,1,1,bottom_right,friendly,neutral,,,,,,,,,,,,,,,,
,,,,,070923,f,y,r,n,13,0,2025-04-04_13h13.06.137,VisualSearchFaces,2024.2.4,MacIntel,121.9512195,,,,,,,,1665.6347,1665.7417,1665.7417,1667.7416,block3,f,1,0.3836,,1,32,72,20,1,0,centre,neutral,no_target,,,,,,,,,,,,,,,,
,,,,,070923,f,y,r,n,13,0,2025-04-04_13h13.06.137,VisualSearchFaces,2024.2.4,MacIntel,121.9512195,,,,,,,,1668.743,1668.85,1668.85,1670.8494,block3,f,1,0.3181,,1,33,73,24,1,0,bottom_right,neutral,no_target,,,,,,,,,,,,,,,,
,,,,,070923,f,y,r,n,13,0,2025-04-04_13h13.06.137,VisualSearchFaces,2024.2.4,MacIntel,121.9512195,,,,,,,,1671.8524,1671.9583,1671.9583,1673.9582,block3,j,1,0.3503,,1,34,74,4,1,1,bottom_right,neutral,friendly,,,,,,,,,,,,,,,,
,,,,,070923,f,y,r,n,13,0,2025-04-04_13h13.06.137,VisualSearchFaces,2024.2.4,MacIntel,121.9512195,,,,,,,,1674.9597,1675.0664,1675.0665,1677.0666,block3,j,1,0.4511,,1,35,75,8,1,1,bottom_left,neutral,threatening,,,,,,,,,,,,,,,,
,,,,,070923,f,y,r,n,13,0,2025-04-04_13h13.06.137,VisualSearchFaces,2024.2.4,MacIntel,121.9512195,,,,,,,,1678.0682,1678.175,1678.1751,1680.175,block3,j,1,0.5426,,1,36,76,5,1,1,centre,neutral,threatening,,,,,,,,,,,,,,,,
,,,,,070923,f,y,r,n,13,0,2025-04-04_13h13.06.137,VisualSearchFaces,2024.2.4,MacIntel,121.9512195,,,,,,,,1681.1764,1681.2824,1681.2825,1683.2833,block3,f,0,0.5677,,1,37,77,11,1,1,top_left,friendly,neutral,,,,,,,,,,,,,,,,
,,,,,070923,f,y,r,n,13,0,2025-04-04_13h13.06.137,VisualSearchFaces,2024.2.4,MacIntel,121.9512195,,,,,,,,1684.2844,1684.3907,1684.3907,1686.3915,block3,j,1,0.4092,,1,38,78,17,1,1,top_right,threatening,neutral,,,,,,,,,,,,,,,,
,,,,,070923,f,y,r,n,13,0,2025-04-04_13h13.06.137,VisualSearchFaces,2024.2.4,MacIntel,121.9512195,,,,,,,,1687.393,1687.4995,1687.4995,1689.5,block3,f,1,0.3104,,1,39,79,28,1,0,bottom_left,neutral,no_target,,,,,,,,,,,,,,,,
,,,,,070923,f,y,r,n,13,0,2025-04-04_13h13.06.137,VisualSearchFaces,2024.2.4,MacIntel,121.9512195,,,1750.4013,1765.2668,space,14.8525,,1766.2677,1766.3744,1766.3744,1768.3737,block4,f,1,0.4258,,0,0,0,27,1,0,top_right,neutral,no_target,1689.5019,1750.3994,space,60.8797,,,,,,,,,,,,
,,,,,070923,f,y,r,n,13,0,2025-04-04_13h13.06.137,VisualSearchFaces,2024.2.4,MacIntel,121.9512195,,,,,,,,1769.3757,1769.4828,1769.4829,1771.4829,block4,f,1,0.3001,,0,1,1,26,1,0,top_left,neutral,no_target,,,,,,,,,,,,,,,,
,,,,,070923,f,y,r,n,13,0,2025-04-04_13h13.06.137,VisualSearchFaces,2024.2.4,MacIntel,121.9512195,,,,,,,,1772.4838,1772.5828,1772.5829,1774.5827,block4,j,1,0.3178,,0,2,2,4,1,1,bottom_right,neutral,friendly,,,,,,,,,,,,,,,,
,,,,,070923,f,y,r,n,13,0,2025-04-04_13h13.06.137,VisualSearchFaces,2024.2.4,MacIntel,121.9512195,,,,,,,,1775.5844,1775.6903,1775.6904,1777.6913,block4,f,0,0.5043,,0,3,3,12,1,1,top_right,friendly,neutral,,,,,,,,,,,,,,,,
,,,,,070923,f,y,r,n,13,0,2025-04-04_13h13.06.137,VisualSearchFaces,2024.2.4,MacIntel,121.9512195,,,,,,,,1778.6914,1778.7913,1778.7913,1780.7909,block4,j,1,0.5445,,0,4,4,17,1,1,top_right,threatening,neutral,,,,,,,,,,,,,,,,
,,,,,070923,f,y,r,n,13,0,2025-04-04_13h13.06.137,VisualSearchFaces,2024.2.4,MacIntel,121.9512195,,,,,,,,1781.7928,1781.8995,1781.8996,1783.8995,block4,j,1,0.4495,,0,5,5,7,1,1,top_right,neutral,threatening,,,,,,,,,,,,,,,,
,,,,,070923,f,y,r,n,13,0,2025-04-04_13h13.06.137,VisualSearchFaces,2024.2.4,MacIntel,121.9512195,,,,,,,,1784.9008,1785.0077,1785.0078,1787.0077,block4,f,1,0.5347,,0,6,6,33,1,0,bottom_left,friendly,no_target,,,,,,,,,,,,,,,,
,,,,,070923,f,y,r,n,13,0,2025-04-04_13h13.06.137,VisualSearchFaces,2024.2.4,MacIntel,121.9512195,,,,,,,,1788.0082,1788.1078,1788.1078,1790.1078,block4,j,1,0.4834,,0,7,7,16,1,1,top_left,threatening,neutral,,,,,,,,,,,,,,,,
,,,,,070923,f,y,r,n,13,0,2025-04-04_13h13.06.137,VisualSearchFaces,2024.2.4,MacIntel,121.9512195,,,,,,,,1791.1103,1791.2161,1791.2163,1793.216,block4,f,1,0.4499,,0,8,8,29,1,0,bottom_right,neutral,no_target,,,,,,,,,,,,,,,,
,,,,,070923,f,y,r,n,13,0,2025-04-04_13h13.06.137,VisualSearchFaces,2024.2.4,MacIntel,121.9512195,,,,,,,,1794.2177,1794.3161,1794.3161,1796.3156,block4,f,1,0.359,,0,9,9,38,1,0,bottom_left,threatening,no_target,,,,,,,,,,,,,,,,
,,,,,070923,f,y,r,n,13,0,2025-04-04_13h13.06.137,VisualSearchFaces,2024.2.4,MacIntel,121.9512195,,,,,,,,1797.3172,1797.416,1797.4161,1799.416,block4,j,0,0.4265,,0,10,10,32,1,0,top_right,friendly,no_target,,,,,,,,,,,,,,,,
,,,,,070923,f,y,r,n,13,0,2025-04-04_13h13.06.137,VisualSearchFaces,2024.2.4,MacIntel,121.9512195,,,,,,,,1800.4177,1800.5244,1800.5245,1802.5239,block4,j,1,0.4017,,0,11,11,19,1,1,bottom_right,threatening,neutral,,,,,,,,,,,,,,,,
,,,,,070923,f,y,r,n,13,0,2025-04-04_13h13.06.137,VisualSearchFaces,2024.2.4,MacIntel,121.9512195,,,,,,,,1803.5267,1803.6327,1803.6328,1805.6318,block4,j,1,0.4494,,0,12,12,6,1,1,top_left,neutral,threatening,,,,,,,,,,,,,,,,
,,,,,070923,f,y,r,n,13,0,2025-04-04_13h13.06.137,VisualSearchFaces,2024.2.4,MacIntel,121.9512195,,,,,,,,1806.6337,1806.7326,1806.7327,1808.7326,block4,j,1,0.9127,,0,13,13,18,1,1,bottom_left,threatening,neutral,,,,,,,,,,,,,,,,
,,,,,070923,f,y,r,n,13,0,2025-04-04_13h13.06.137,VisualSearchFaces,2024.2.4,MacIntel,121.9512195,,,,,,,,1809.7342,1809.8409,1809.8411,1811.8409,block4,f,1,0.3834,,0,14,14,22,1,0,top_right,neutral,no_target,,,,,,,,,,,,,,,,
,,,,,070923,f,y,r,n,13,0,2025-04-04_13h13.06.137,VisualSearchFaces,2024.2.4,MacIntel,121.9512195,,,,,,,,1812.8431,1812.9484,1812.9485,1814.9493,block4,f,0,0.4848,,0,15,15,10,1,1,centre,friendly,neutral,,,,,,,,,,,,,,,,
,,,,,070923,f,y,r,n,13,0,2025-04-04_13h13.06.137,VisualSearchFaces,2024.2.4,MacIntel,121.9512195,,,,,,,,1815.9501,1816.0492,1816.0493,1818.0492,block4,j,1,0.412,,0,16,16,5,1,1,centre,neutral,threatening,,,,,,,,,,,,,,,,
,,,,,070923,f,y,r,n,13,0,2025-04-04_13h13.06.137,VisualSearchFaces,2024.2.4,MacIntel,121.9512195,,,,,,,,1819.0504,1819.1575,1819.1575,1821.1576,block4,f,1,0.2674,,0,17,17,24,1,0,bottom_right,neutral,no_target,,,,,,,,,,,,,,,,
,,,,,070923,f,y,r,n,13,0,2025-04-04_13h13.06.137,VisualSearchFaces,2024.2.4,MacIntel,121.9512195,,,,,,,,1822.1592,1822.2658,1822.2659,1824.266,block4,j,0,0.3758,,0,18,18,37,1,0,top_right,threatening,no_target,,,,,,,,,,,,,,,,
,,,,,070923,f,y,r,n,13,0,2025-04-04_13h13.06.137,VisualSearchFaces,2024.2.4,MacIntel,121.9512195,,,,,,,,1825.2672,1825.3742,1825.3743,1827.3743,block4,j,1,0.5345,,0,19,19,15,1,1,centre,threatening,neutral,,,,,,,,,,,,,,,,
,,,,,070923,f,y,r,n,13,0,2025-04-04_13h13.06.137,VisualSearchFaces,2024.2.4,MacIntel,121.9512195,,,,,,,,1828.3769,1828.4821,1828.4822,1830.4814,block4,j,1,0.6156,,0,20,20,9,1,1,bottom_right,neutral,threatening,,,,,,,,,,,,,,,,
,,,,,070923,f,y,r,n,13,0,2025-04-04_13h13.06.137,VisualSearchFaces,2024.2.4,MacIntel,121.9512195,,,,,,,,1831.4838,1831.5821,1831.5821,1833.5825,block4,j,0,0.4924,,0,21,21,31,1,0,top_left,friendly,no_target,,,,,,,,,,,,,,,,
,,,,,070923,f,y,r,n,13,0,2025-04-04_13h13.06.137,VisualSearchFaces,2024.2.4,MacIntel,121.9512195,,,,,,,,1834.5835,1834.6908,1834.691,1836.6911,block4,j,1,0.4588,,0,22,22,1,1,1,top_left,neutral,friendly,,,,,,,,,,,,,,,,
,,,,,070923,f,y,r,n,13,0,2025-04-04_13h13.06.137,VisualSearchFaces,2024.2.4,MacIntel,121.9512195,,,,,,,,1837.6918,1837.7908,1837.7908,1839.7908,block4,f,1,0.2749,,0,23,23,28,1,0,bottom_left,neutral,no_target,,,,,,,,,,,,,,,,
,,,,,070923,f,y,r,n,13,0,2025-04-04_13h13.06.137,VisualSearchFaces,2024.2.4,MacIntel,121.9512195,,,,,,,,1840.7924,1840.8993,1840.8993,1842.899,block4,j,1,0.3932,,0,24,24,11,1,1,top_left,friendly,neutral,,,,,,,,,,,,,,,,
,,,,,070923,f,y,r,n,13,0,2025-04-04_13h13.06.137,VisualSearchFaces,2024.2.4,MacIntel,121.9512195,,,,,,,,1843.9,1844.0076,1844.0076,1846.0074,block4,j,1,0.4172,,0,25,25,2,1,1,top_right,neutral,friendly,,,,,,,,,,,,,,,,
,,,,,070923,f,y,r,n,13,0,2025-04-04_13h13.06.137,VisualSearchFaces,2024.2.4,MacIntel,121.9512195,,,,,,,,1847.0088,1847.1156,1847.1157,1849.1149,block4,j,1,0.3177,,0,26,26,0,1,1,centre,neutral,friendly,,,,,,,,,,,,,,,,
,,,,,070923,f,y,r,n,13,0,2025-04-04_13h13.06.137,VisualSearchFaces,2024.2.4,MacIntel,121.9512195,,,,,,,,1850.1173,1850.2243,1850.2243,1852.2241,block4,f,1,0.4657,,0,27,27,21,1,0,top_left,neutral,no_target,,,,,,,,,,,,,,,,
,,,,,070923,f,y,r,n,13,0,2025-04-04_13h13.06.137,VisualSearchFaces,2024.2.4,MacIntel,121.9512195,,,,,,,,1853.2255,1853.3326,1853.3327,1855.3323,block4,f,1,0.5666,,0,28,28,39,1,0,bottom_right,threatening,no_target,,,,,,,,,,,,,,,,
,,,,,070923,f,y,r,n,13,0,2025-04-04_13h13.06.137,VisualSearchFaces,2024.2.4,MacIntel,121.9512195,,,,,,,,1856.3333,1856.4407,1856.4408,1858.44,block4,j,0,0.4501,,0,29,29,30,1,0,centre,friendly,no_target,,,,,,,,,,,,,,,,
,,,,,070923,f,y,r,n,13,0,2025-04-04_13h13.06.137,VisualSearchFaces,2024.2.4,MacIntel,121.9512195,,,,,,,,1859.4422,1859.5484,1859.5485,1861.5482,block4,f,1,0.5333,,0,30,30,36,1,0,top_left,threatening,no_target,,,,,,,,,,,,,,,,
,,,,,070923,f,y,r,n,13,0,2025-04-04_13h13.06.137,VisualSearchFaces,2024.2.4,MacIntel,121.9512195,,,,,,,,1862.5514,1862.6574,1862.6574,1864.6563,block4,j,1,0.4256,,0,31,31,13,1,1,bottom_left,friendly,neutral,,,,,,,,,,,,,,,,
,,,,,070923,f,y,r,n,13,0,2025-04-04_13h13.06.137,VisualSearchFaces,2024.2.4,MacIntel,121.9512195,,,,,,,,1865.6586,1865.7572,1865.7574,1867.7573,block4,f,1,0.4165,,0,32,32,23,1,0,bottom_left,neutral,no_target,,,,,,,,,,,,,,,,
,,,,,070923,f,y,r,n,13,0,2025-04-04_13h13.06.137,VisualSearchFaces,2024.2.4,MacIntel,121.9512195,,,,,,,,1868.7595,1868.8656,1868.8657,1870.8657,block4,f,1,0.9413,,0,33,33,35,1,0,centre,threatening,no_target,,,,,,,,,,,,,,,,
,,,,,070923,f,y,r,n,13,0,2025-04-04_13h13.06.137,VisualSearchFaces,2024.2.4,MacIntel,121.9512195,,,,,,,,1871.866,1871.965,1871.9651,1873.9656,block4,j,1,0.5671,,0,34,34,14,1,1,bottom_right,friendly,neutral,,,,,,,,,,,,,,,,
,,,,,070923,f,y,r,n,13,0,2025-04-04_13h13.06.137,VisualSearchFaces,2024.2.4,MacIntel,121.9512195,,,,,,,,1874.9672,1875.0741,1875.0741,1877.0735,block4,j,1,0.4335,,0,35,35,8,1,1,bottom_left,neutral,threatening,,,,,,,,,,,,,,,,
,,,,,070923,f,y,r,n,13,0,2025-04-04_13h13.06.137,VisualSearchFaces,2024.2.4,MacIntel,121.9512195,,,,,,,,1878.0764,1878.1823,1878.1824,1880.1822,block4,f,1,0.2507,,0,36,36,25,1,0,centre,neutral,no_target,,,,,,,,,,,,,,,,
,,,,,070923,f,y,r,n,13,0,2025-04-04_13h13.06.137,VisualSearchFaces,2024.2.4,MacIntel,121.9512195,,,,,,,,1881.1836,1881.2906,1881.2908,1883.2897,block4,f,1,0.3857,,0,37,37,20,1,0,centre,neutral,no_target,,,,,,,,,,,,,,,,
,,,,,070923,f,y,r,n,13,0,2025-04-04_13h13.06.137,VisualSearchFaces,2024.2.4,MacIntel,121.9512195,,,,,,,,1884.2918,1884.399,1884.399,1886.3989,block4,j,1,0.4103,,0,38,38,3,1,1,bottom_left,neutral,friendly,,,,,,,,,,,,,,,,
,,,,,070923,f,y,r,n,13,0,2025-04-04_13h13.06.137,VisualSearchFaces,2024.2.4,MacIntel,121.9512195,,,,,,,,1887.3997,1887.5071,1887.5072,1889.5076,block4,f,1,0.5251,,0,39,39,34,1,0,bottom_right,friendly,no_target,,,,,,,,,,,,,,,,
,,,,,070923,f,y,r,n,13,0,2025-04-04_13h13.06.137,VisualSearchFaces,2024.2.4,MacIntel,121.9512195,,,,,,,,1890.5083,1890.6154,1890.6155,1892.6156,block4,f,1,0.4435,,1,0,40,24,1,0,bottom_right,neutral,no_target,,,,,,,,,,,,,,,,
,,,,,070923,f,y,r,n,13,0,2025-04-04_13h13.06.137,VisualSearchFaces,2024.2.4,MacIntel,121.9512195,,,,,,,,1893.6165,1893.7243,1893.7244,1895.7238,block4,j,1,0.394,,1,1,41,14,1,1,bottom_right,friendly,neutral,,,,,,,,,,,,,,,,
,,,,,070923,f,y,r,n,13,0,2025-04-04_13h13.06.137,VisualSearchFaces,2024.2.4,MacIntel,121.9512195,,,,,,,,1896.7246,1896.8322,1896.8322,1898.8315,block4,j,1,0.4176,,1,2,42,8,1,1,bottom_left,neutral,threatening,,,,,,,,,,,,,,,,
,,,,,070923,f,y,r,n,13,0,2025-04-04_13h13.06.137,VisualSearchFaces,2024.2.4,MacIntel,121.9512195,,,,,,,,1899.8337,1899.9403,1899.9403,1901.9396,block4,f,1,0.4511,,1,3,43,22,1,0,top_right,neutral,no_target,,,,,,,,,,,,,,,,
,,,,,070923,f,y,r,n,13,0,2025-04-04_13h13.06.137,VisualSearchFaces,2024.2.4,MacIntel,121.9512195,,,,,,,,1902.9422,1903.049,1903.0491,1905.0488,block4,f,1,0.3603,,1,4,44,28,1,0,bottom_left,neutral,no_target,,,,,,,,,,,,,,,,
,,,,,070923,f,y,r,n,13,0,2025-04-04_13h13.06.137,VisualSearchFaces,2024.2.4,MacIntel,121.9512195,,,,,,,,1906.0502,1906.149,1906.1491,1908.1487,block4,f,1,0.5517,,1,5,45,35,1,0,centre,threatening,no_target,,,,,,,,,,,,,,,,
,,,,,070923,f,y,r,n,13,0,2025-04-04_13h13.06.137,VisualSearchFaces,2024.2.4,MacIntel,121.9512195,,,,,,,,1909.1502,1909.2563,1909.2563,1911.2572,block4,f,1,0.4786,,1,6,46,30,1,0,centre,friendly,no_target,,,,,,,,,,,,,,,,
,,,,,070923,f,y,r,n,13,0,2025-04-04_13h13.06.137,VisualSearchFaces,2024.2.4,MacIntel,121.9512195,,,,,,,,1912.2588,1912.3644,1912.3644,1914.3654,block4,j,1,0.3973,,1,7,47,3,1,1,bottom_left,neutral,friendly,,,,,,,,,,,,,,,,
,,,,,070923,f,y,r,n,13,0,2025-04-04_13h13.06.137,VisualSearchFaces,2024.2.4,MacIntel,121.9512195,,,,,,,,1915.3666,1915.4739,1915.4739,1917.4737,block4,j,1,0.3915,,1,8,48,9,1,1,bottom_right,neutral,threatening,,,,,,,,,,,,,,,,
,,,,,070923,f,y,r,n,13,0,2025-04-04_13h13.06.137,VisualSearchFaces,2024.2.4,MacIntel,121.9512195,,,,,,,,1918.4749,1918.5821,1918.5822,1920.5822,block4,f,1,0.5958,,1,9,49,34,1,0,bottom_right,friendly,no_target,,,,,,,,,,,,,,,,
,,,,,070923,f,y,r,n,13,0,2025-04-04_13h13.06.137,VisualSearchFaces,2024.2.4,MacIntel,121.9512195,,,,,,,,1921.5839,1921.6903,1921.6904,1923.6904,block4,j,1,0.5498,,1,10,50,11,1,1,top_left,friendly,neutral,,,,,,,,,,,,,,,,
,,,,,070923,f,y,r,n,13,0,2025-04-04_13h13.06.137,VisualSearchFaces,2024.2.4,MacIntel,121.9512195,,,,,,,,1924.692,1924.799,1924.799,1926.7985,block4,j,1,0.4986,,1,11,51,12,1,1,top_right,friendly,neutral,,,,,,,,,,,,,,,,
,,,,,070923,f,y,r,n,13,0,2025-04-04_13h13.06.137,VisualSearchFaces,2024.2.4,MacIntel,121.9512195,,,,,,,,1927.8,1927.9072,1927.9073,1929.907,block4,f,1,0.4248,,1,12,52,33,1,0,bottom_left,friendly,no_target,,,,,,,,,,,,,,,,
,,,,,070923,f,y,r,n,13,0,2025-04-04_13h13.06.137,VisualSearchFaces,2024.2.4,MacIntel,121.9512195,,,,,,,,1930.9081,1931.0142,1931.0142,1933.0153,block4,f,1,0.411,,1,13,53,29,1,0,bottom_right,neutral,no_target,,,,,,,,,,,,,,,,
,,,,,070923,f,y,r,n,13,0,2025-04-04_13h13.06.137,VisualSearchFaces,2024.2.4,MacIntel,121.9512195,,,,,,,,1934.0168,1934.1239,1934.124,1936.1235,block4,j,1,0.4666,,1,14,54,18,1,1,bottom_left,threatening,neutral,,,,,,,,,,,,,,,,
,,,,,070923,f,y,r,n,13,0,2025-04-04_13h13.06.137,VisualSearchFaces,2024.2.4,MacIntel,121.9512195,,,,,,,,1937.1251,1937.2321,1937.2322,1939.232,block4,j,1,0.3594,,1,15,55,1,1,1,top_left,neutral,friendly,,,,,,,,,,,,,,,,
,,,,,070923,f,y,r,n,13,0,2025-04-04_13h13.06.137,VisualSearchFaces,2024.2.4,MacIntel,121.9512195,,,,,,,,1940.2328,1940.3402,1940.3402,1942.3404,block4,j,1,0.5423,,1,16,56,5,1,1,centre,neutral,threatening,,,,,,,,,,,,,,,,
,,,,,070923,f,y,r,n,13,0,2025-04-04_13h13.06.137,VisualSearchFaces,2024.2.4,MacIntel,121.9512195,,,,,,,,1943.3412,1943.4486,1943.4486,1945.4485,block4,f,1,0.3749,,1,17,57,21,1,0,top_left,neutral,no_target,,,,,,,,,,,,,,,,
,,,,,070923,f,y,r,n,13,0,2025-04-04_13h13.06.137,VisualSearchFaces,2024.2.4,MacIntel,121.9512195,,,,,,,,1946.4501,1946.5569,1946.5569,1948.5569,block4,f,0,0.8591,,1,18,58,10,1,1,centre,friendly,neutral,,,,,,,,,,,,,,,,
,,,,,070923,f,y,r,n,13,0,2025-04-04_13h13.06.137,VisualSearchFaces,2024.2.4,MacIntel,121.9512195,,,,,,,,1949.5581,1949.6652,1949.6653,1951.6655,block4,f,1,0.3371,,1,19,59,25,1,0,centre,neutral,no_target,,,,,,,,,,,,,,,,
,,,,,070923,f,y,r,n,13,0,2025-04-04_13h13.06.137,VisualSearchFaces,2024.2.4,MacIntel,121.9512195,,,,,,,,1952.6676,1952.7738,1952.7738,1954.7735,block4,j,1,0.6333,,1,20,60,15,1,1,centre,threatening,neutral,,,,,,,,,,,,,,,,
,,,,,070923,f,y,r,n,13,0,2025-04-04_13h13.06.137,VisualSearchFaces,2024.2.4,MacIntel,121.9512195,,,,,,,,1955.7748,1955.8818,1955.8819,1957.8819,block4,f,1,0.3087,,1,21,61,20,1,0,centre,neutral,no_target,,,,,,,,,,,,,,,,
,,,,,070923,f,y,r,n,13,0,2025-04-04_13h13.06.137,VisualSearchFaces,2024.2.4,MacIntel,121.9512195,,,,,,,,1958.8789,1958.986,1958.9861,1960.986,block4,j,1,0.416,,1,22,62,17,1,1,top_right,threatening,neutral,,,,,,,,,,,,,,,,
,,,,,070923,f,y,r,n,13,0,2025-04-04_13h13.06.137,VisualSearchFaces,2024.2.4,MacIntel,121.9512195,,,,,,,,1961.9885,1962.0935,1962.0935,1964.0934,block4,f,1,0.751,,1,23,63,36,1,0,top_left,threatening,no_target,,,,,,,,,,,,,,,,
,,,,,070923,f,y,r,n,13,0,2025-04-04_13h13.06.137,VisualSearchFaces,2024.2.4,MacIntel,121.9512195,,,,,,,,1965.0956,1965.2027,1965.2027,1967.2022,block4,j,1,0.7964,,1,24,64,2,1,1,top_right,neutral,friendly,,,,,,,,,,,,,,,,
,,,,,070923,f,y,r,n,13,0,2025-04-04_13h13.06.137,VisualSearchFaces,2024.2.4,MacIntel,121.9512195,,,,,,,,1968.2037,1968.3108,1968.3109,1970.3109,block4,j,1,0.4622,,1,25,65,0,1,1,centre,neutral,friendly,,,,,,,,,,,,,,,,
,,,,,070923,f,y,r,n,13,0,2025-04-04_13h13.06.137,VisualSearchFaces,2024.2.4,MacIntel,121.9512195,,,,,,,,1971.3123,1971.4191,1971.4191,1973.4193,block4,j,1,0.4043,,1,26,66,4,1,1,bottom_right,neutral,friendly,,,,,,,,,,,,,,,,
,,,,,070923,f,y,r,n,13,0,2025-04-04_13h13.06.137,VisualSearchFaces,2024.2.4,MacIntel,121.9512195,,,,,,,,1974.4204,1974.5277,1974.5278,1976.5275,block4,f,1,0.375,,1,27,67,23,1,0,bottom_left,neutral,no_target,,,,,,,,,,,,,,,,
,,,,,070923,f,y,r,n,13,0,2025-04-04_13h13.06.137,VisualSearchFaces,2024.2.4,MacIntel,121.9512195,,,,,,,,1977.5281,1977.6279,1977.628,1979.6274,block4,j,1,0.7742,,1,28,68,19,1,1,bottom_right,threatening,neutral,,,,,,,,,,,,,,,,
,,,,,070923,f,y,r,n,13,0,2025-04-04_13h13.06.137,VisualSearchFaces,2024.2.4,MacIntel,121.9512195,,,,,,,,1980.6286,1980.736,1980.7361,1982.7357,block4,f,1,0.4241,,1,29,69,26,1,0,top_left,neutral,no_target,,,,,,,,,,,,,,,,
,,,,,070923,f,y,r,n,13,0,2025-04-04_13h13.06.137,VisualSearchFaces,2024.2.4,MacIntel,121.9512195,,,,,,,,1983.7329,1983.84,1983.8402,1985.8403,block4,j,0,0.4289,,1,30,70,38,1,0,bottom_left,threatening,no_target,,,,,,,,,,,,,,,,
,,,,,070923,f,y,r,n,13,0,2025-04-04_13h13.06.137,VisualSearchFaces,2024.2.4,MacIntel,121.9512195,,,,,,,,1986.841,1986.9483,1986.9485,1988.9484,block4,j,0,0.3595,,1,31,71,39,1,0,bottom_right,threatening,no_target,,,,,,,,,,,,,,,,
,,,,,070923,f,y,r,n,13,0,2025-04-04_13h13.06.137,VisualSearchFaces,2024.2.4,MacIntel,121.9512195,,,,,,,,1989.9496,1990.0516,1990.0517,1992.0526,block4,f,1,0.3419,,1,32,72,27,1,0,top_right,neutral,no_target,,,,,,,,,,,,,,,,
,,,,,070923,f,y,r,n,13,0,2025-04-04_13h13.06.137,VisualSearchFaces,2024.2.4,MacIntel,121.9512195,,,,,,,,1993.0535,1993.1597,1993.1597,1995.1608,block4,f,1,0.4029,,1,33,73,37,1,0,top_right,threatening,no_target,,,,,,,,,,,,,,,,
,,,,,070923,f,y,r,n,13,0,2025-04-04_13h13.06.137,VisualSearchFaces,2024.2.4,MacIntel,121.9512195,,,,,,,,1996.1621,1996.2693,1996.2693,1998.2691,block4,j,1,0.36,,1,34,74,6,1,1,top_left,neutral,threatening,,,,,,,,,,,,,,,,
,,,,,070923,f,y,r,n,13,0,2025-04-04_13h13.06.137,VisualSearchFaces,2024.2.4,MacIntel,121.9512195,,,,,,,,1999.267,1999.3734,1999.3735,2001.3733,block4,j,1,0.4571,,1,35,75,7,1,1,top_right,neutral,threatening,,,,,,,,,,,,,,,,
,,,,,070923,f,y,r,n,13,0,2025-04-04_13h13.06.137,VisualSearchFaces,2024.2.4,MacIntel,121.9512195,,,,,,,,2002.3737,2002.4816,2002.4816,2004.4816,block4,f,1,0.6425,,1,36,76,31,1,0,top_left,friendly,no_target,,,,,,,,,,,,,,,,
,,,,,070923,f,y,r,n,13,0,2025-04-04_13h13.06.137,VisualSearchFaces,2024.2.4,MacIntel,121.9512195,,,,,,,,2005.4823,2005.5816,2005.5817,2007.5816,block4,j,1,0.4663,,1,37,77,16,1,1,top_left,threatening,neutral,,,,,,,,,,,,,,,,
,,,,,070923,f,y,r,n,13,0,2025-04-04_13h13.06.137,VisualSearchFaces,2024.2.4,MacIntel,121.9512195,,,,,,,,2008.5831,2008.6901,2008.6902,2010.6898,block4,j,1,0.6793,,1,38,78,13,1,1,bottom_left,friendly,neutral,,,,,,,,,,,,,,,,
,,,,,070923,f,y,r,n,13,0,2025-04-04_13h13.06.137,VisualSearchFaces,2024.2.4,MacIntel,121.9512195,,,,,,,,2011.6912,2011.7983,2011.7984,2013.7983,block4,f,1,0.6085,,1,39,79,32,1,0,top_right,friendly,no_target,,,,,,,,,,,,,,,,
,,,,,070923,f,y,r,n,13,0,2025-04-04_13h13.06.137,VisualSearchFaces,2024.2.4,MacIntel,121.9512195,,,,,,,,,,,,,,,,,,,,,,,,,,2013.8009,2047.4402,space,33.6239,,2047.4409,2059.4492,Faces,1,[2059.4481000000237],[2059.4481000000237],,,,,
,,,,,070923,f,y,r,n,13,0,2025-04-04_13h13.06.137,VisualSearchFaces,2024.2.4,MacIntel,121.9512195,,,,,,,,,,,,,,,,,,,,,,,,,,,,,,,,,,,,,2059.4494,2080.4569,space,20.9987,
