Welcome.started,Welcome.stopped,keyboard_space_welcome.keys,keyboard_space_welcome.rt,keyboard_space_welcome.duration,participant,gender,(corrected) normal vision,handedness,exp vse,session,skip_intro,date,expName,psychopyVersion,OS,frameRate,stimulus_exposure.started,stimulus_exposure.stopped,Block_intro.started,Block_intro.stopped,keyboard_space.keys,keyboard_space.rt,keyboard_space.duration,Stimulus.started,Stimulus.stopped,fixation_ending.started,fixation_ending.stopped,block_id,keyboard_response.keys,keyboard_response.corr,keyboard_response.rt,keyboard_response.duration,trials.thisRepN,trials.thisTrialN,trials.thisN,trials.thisIndex,trials.ran,target_presence,target_position,background_emotion,target_emotion,Block_outro.started,Block_outro.stopped,keyboard_space_end.keys,keyboard_space_end.rt,keyboard_space_end.duration,Question_about_stimulus.started,Question_about_stimulus.stopped,textbox_response.text,button.numClicks,button.timesOn,button.timesOff,Thanks.started,Thanks.stopped,keyboard_space_goodbye.keys,keyboard_space_goodbye.rt,keyboard_space_goodbye.duration
0.0005,2.1632,space,1.9886,,252125,m,y,r,n,12,0,2025-04-06_10h17.34.373,VisualSearchFaces,2024.2.4,Win32,60.24096386,,,,,,,,,,,,,,,,,,,,,,,,,,,,,,,,,,,,,,,,,
,,,,,252125,m,y,r,n,12,0,2025-04-06_10h17.34.373,VisualSearchFaces,2024.2.4,Win32,60.24096386,23.2983,26.3125,26.3224,29.8756,space,3.5194,,30.8833,31.1305,31.1308,33.129,practice1,j,1,0.6176,,0,0,0,3,1,1,bottom_left,neutral,friendly,,,,,,,,,,,,,,,,
,,,,,252125,m,y,r,n,12,0,2025-04-06_10h17.34.373,VisualSearchFaces,2024.2.4,Win32,60.24096386,,,,,,,,34.131,34.3789,34.3791,36.3787,practice1,j,1,0.5016,,0,1,1,12,1,1,top_right,friendly,neutral,,,,,,,,,,,,,,,,
,,,,,252125,m,y,r,n,12,0,2025-04-06_10h17.34.373,VisualSearchFaces,2024.2.4,Win32,60.24096386,,,,,,,,37.3813,37.6458,37.646,39.6421,practice1,j,1,0.6193,,0,2,2,17,1,1,top_right,threatening,neutral,,,,,,,,,,,,,,,,
,,,,,252125,m,y,r,n,12,0,2025-04-06_10h17.34.373,VisualSearchFaces,2024.2.4,Win32,60.24096386,,,,,,,,40.648,40.9123,40.9123,42.9123,practice1,f,1,0.4143,,0,3,3,38,1,0,bottom_left,threatening,no_target,,,,,,,,,,,,,,,,
,,,,,252125,m,y,r,n,12,0,2025-04-06_10h17.34.373,VisualSearchFaces,2024.2.4,Win32,60.24096386,,,,,,,,43.9088,44.1624,44.1625,46.152,practice1,j,1,0.3205,,0,4,4,18,1,1,bottom_left,threatening,neutral,,,,,,,,,,,,,,,,
,,,,,252125,m,y,r,n,12,0,2025-04-06_10h17.34.373,VisualSearchFaces,2024.2.4,Win32,60.24096386,,,,,,,,47.1629,47.4126,47.4126,49.4119,practice1,j,1,0.3129,,0,5,5,10,1,1,centre,friendly,neutral,,,,,,,,,,,,,,,,
,,,,,252125,m,y,r,n,12,0,2025-04-06_10h17.34.373,VisualSearchFaces,2024.2.4,Win32,60.24096386,,,,,,,,50.4077,50.662,50.6621,52.6579,practice1,f,1,0.3619,,0,6,6,26,1,0,top_left,neutral,no_target,,,,,,,,,,,,,,,,
,,,,,252125,m,y,r,n,12,0,2025-04-06_10h17.34.373,VisualSearchFaces,2024.2.4,Win32,60.24096386,,,,,,,,53.6659,53.9135,53.9136,55.9062,practice1,f,1,0.3182,,0,7,7,24,1,0,bottom_right,neutral,no_target,,,,,,,,,,,,,,,,
,,,,,252125,m,y,r,n,12,0,2025-04-06_10h17.34.373,VisualSearchFaces,2024.2.4,Win32,60.24096386,,,,,,,,56.9295,57.1787,57.1788,59.1924,practice1,j,1,0.3162,,0,8,8,15,1,1,centre,threatening,neutral,,,,,,,,,,,,,,,,
,,,,,252125,m,y,r,n,12,0,2025-04-06_10h17.34.373,VisualSearchFaces,2024.2.4,Win32,60.24096386,,,,,,,,60.1816,60.4315,60.4315,62.4286,practice1,f,1,0.4796,,0,9,9,22,1,0,top_right,neutral,no_target,,,,,,,,,,,,,,,,
,,,,,252125,m,y,r,n,12,0,2025-04-06_10h17.34.373,VisualSearchFaces,2024.2.4,Win32,60.24096386,,,,,,,,63.431,63.6952,63.6954,65.6905,practice1,f,1,0.3845,,0,10,10,27,1,0,top_right,neutral,no_target,,,,,,,,,,,,,,,,
,,,,,252125,m,y,r,n,12,0,2025-04-06_10h17.34.373,VisualSearchFaces,2024.2.4,Win32,60.24096386,,,,,,,,66.6993,66.9574,66.9575,68.9581,practice1,j,1,0.4679,,0,11,11,19,1,1,bottom_right,threatening,neutral,,,,,,,,,,,,,,,,
,,,,,252125,m,y,r,n,12,0,2025-04-06_10h17.34.373,VisualSearchFaces,2024.2.4,Win32,60.24096386,,,,,,,,69.966,70.212,70.2121,72.2121,practice1,j,1,0.4023,,0,12,12,7,1,1,top_right,neutral,threatening,,,,,,,,,,,,,,,,
,,,,,252125,m,y,r,n,12,0,2025-04-06_10h17.34.373,VisualSearchFaces,2024.2.4,Win32,60.24096386,,,,,,,,73.2155,73.4829,73.483,75.4792,practice1,j,1,0.3026,,0,13,13,2,1,1,top_right,neutral,friendly,,,,,,,,,,,,,,,,
,,,,,252125,m,y,r,n,12,0,2025-04-06_10h17.34.373,VisualSearchFaces,2024.2.4,Win32,60.24096386,,,,,,,,76.4843,76.7458,76.7459,78.7447,practice1,f,1,0.3353,,0,14,14,20,1,0,centre,neutral,no_target,,,,,,,,,,,,,,,,
,,,,,252125,m,y,r,n,12,0,2025-04-06_10h17.34.373,VisualSearchFaces,2024.2.4,Win32,60.24096386,,,,,,,,79.7408,79.9951,79.9952,82.0072,practice1,f,1,0.4371,,0,15,15,37,1,0,top_right,threatening,no_target,,,,,,,,,,,,,,,,
,,,,,252125,m,y,r,n,12,0,2025-04-06_10h17.34.373,VisualSearchFaces,2024.2.4,Win32,60.24096386,,,,,,,,82.9867,83.245,83.2451,85.2448,practice1,f,1,0.3187,,0,16,16,39,1,0,bottom_right,threatening,no_target,,,,,,,,,,,,,,,,
,,,,,252125,m,y,r,n,12,0,2025-04-06_10h17.34.373,VisualSearchFaces,2024.2.4,Win32,60.24096386,,,,,,,,86.2486,86.4967,86.4969,88.4948,practice1,j,1,0.3821,,0,17,17,13,1,1,bottom_left,friendly,neutral,,,,,,,,,,,,,,,,
,,,,,252125,m,y,r,n,12,0,2025-04-06_10h17.34.373,VisualSearchFaces,2024.2.4,Win32,60.24096386,,,,,,,,89.497,89.7454,89.7455,91.7446,practice1,f,1,0.5017,,0,18,18,28,1,0,bottom_left,neutral,no_target,,,,,,,,,,,,,,,,
,,,,,252125,m,y,r,n,12,0,2025-04-06_10h17.34.373,VisualSearchFaces,2024.2.4,Win32,60.24096386,,,,,,,,92.748,92.9963,92.9964,94.9945,practice1,j,1,0.9316,,0,19,19,6,1,1,top_left,neutral,threatening,,,,,,,,,,,,,,,,
,,,,,252125,m,y,r,n,12,0,2025-04-06_10h17.34.373,VisualSearchFaces,2024.2.4,Win32,60.24096386,,,,,,,,96.001,96.2529,96.2529,98.2449,practice1,f,1,0.3647,,0,20,20,32,1,0,top_right,friendly,no_target,,,,,,,,,,,,,,,,
,,,,,252125,m,y,r,n,12,0,2025-04-06_10h17.34.373,VisualSearchFaces,2024.2.4,Win32,60.24096386,,,,,,,,99.2483,99.5114,99.5115,101.5112,practice1,j,1,0.3861,,0,21,21,11,1,1,top_left,friendly,neutral,,,,,,,,,,,,,,,,
,,,,,252125,m,y,r,n,12,0,2025-04-06_10h17.34.373,VisualSearchFaces,2024.2.4,Win32,60.24096386,,,,,,,,102.5085,102.7615,102.7615,104.7638,practice1,f,0,1.5072,,0,22,22,5,1,1,centre,neutral,threatening,,,,,,,,,,,,,,,,
,,,,,252125,m,y,r,n,12,0,2025-04-06_10h17.34.373,VisualSearchFaces,2024.2.4,Win32,60.24096386,,,,,,,,105.7641,106.0245,106.0246,108.0237,practice1,j,1,0.4513,,0,23,23,14,1,1,bottom_right,friendly,neutral,,,,,,,,,,,,,,,,
,,,,,252125,m,y,r,n,12,0,2025-04-06_10h17.34.373,VisualSearchFaces,2024.2.4,Win32,60.24096386,,,,,,,,109.0265,109.2777,109.2778,111.2777,practice1,j,1,0.4189,,0,24,24,4,1,1,bottom_right,neutral,friendly,,,,,,,,,,,,,,,,
,,,,,252125,m,y,r,n,12,0,2025-04-06_10h17.34.373,VisualSearchFaces,2024.2.4,Win32,60.24096386,,,,,,,,112.2792,112.5409,112.5409,114.5404,practice1,j,1,0.5674,,0,25,25,16,1,1,top_left,threatening,neutral,,,,,,,,,,,,,,,,
,,,,,252125,m,y,r,n,12,0,2025-04-06_10h17.34.373,VisualSearchFaces,2024.2.4,Win32,60.24096386,,,,,,,,115.5429,115.7971,115.7972,117.7941,practice1,f,1,0.473,,0,26,26,30,1,0,centre,friendly,no_target,,,,,,,,,,,,,,,,
,,,,,252125,m,y,r,n,12,0,2025-04-06_10h17.34.373,VisualSearchFaces,2024.2.4,Win32,60.24096386,,,,,,,,118.7961,119.0611,119.0612,121.0611,practice1,j,1,0.4676,,0,27,27,8,1,1,bottom_left,neutral,threatening,,,,,,,,,,,,,,,,
,,,,,252125,m,y,r,n,12,0,2025-04-06_10h17.34.373,VisualSearchFaces,2024.2.4,Win32,60.24096386,,,,,,,,122.0637,122.3112,122.3113,124.3109,practice1,j,1,0.3784,,0,28,28,9,1,1,bottom_right,neutral,threatening,,,,,,,,,,,,,,,,
,,,,,252125,m,y,r,n,12,0,2025-04-06_10h17.34.373,VisualSearchFaces,2024.2.4,Win32,60.24096386,,,,,,,,125.3136,125.5777,125.5778,127.5775,practice1,f,1,0.451,,0,29,29,21,1,0,top_left,neutral,no_target,,,,,,,,,,,,,,,,
,,,,,252125,m,y,r,n,12,0,2025-04-06_10h17.34.373,VisualSearchFaces,2024.2.4,Win32,60.24096386,,,,,,,,128.5813,128.8442,128.8442,130.844,practice1,f,1,0.6553,,0,30,30,36,1,0,top_left,threatening,no_target,,,,,,,,,,,,,,,,
,,,,,252125,m,y,r,n,12,0,2025-04-06_10h17.34.373,VisualSearchFaces,2024.2.4,Win32,60.24096386,,,,,,,,131.8476,132.1062,132.1063,134.0969,practice1,f,1,0.8385,,0,31,31,25,1,0,centre,neutral,no_target,,,,,,,,,,,,,,,,
,,,,,252125,m,y,r,n,12,0,2025-04-06_10h17.34.373,VisualSearchFaces,2024.2.4,Win32,60.24096386,,,,,,,,135.1146,135.3776,135.3777,137.3778,practice1,j,1,0.7396,,0,32,32,1,1,1,top_left,neutral,friendly,,,,,,,,,,,,,,,,
,,,,,252125,m,y,r,n,12,0,2025-04-06_10h17.34.373,VisualSearchFaces,2024.2.4,Win32,60.24096386,,,,,,,,138.3825,138.6467,138.6467,140.6439,practice1,f,1,0.3994,,0,33,33,33,1,0,bottom_left,friendly,no_target,,,,,,,,,,,,,,,,
,,,,,252125,m,y,r,n,12,0,2025-04-06_10h17.34.373,VisualSearchFaces,2024.2.4,Win32,60.24096386,,,,,,,,141.6456,141.9048,141.9049,143.894,practice1,j,1,0.4052,,0,34,34,0,1,1,centre,neutral,friendly,,,,,,,,,,,,,,,,
,,,,,252125,m,y,r,n,12,0,2025-04-06_10h17.34.373,VisualSearchFaces,2024.2.4,Win32,60.24096386,,,,,,,,144.8969,145.1606,145.1607,147.1631,practice1,f,1,0.4837,,0,35,35,23,1,0,bottom_left,neutral,no_target,,,,,,,,,,,,,,,,
,,,,,252125,m,y,r,n,12,0,2025-04-06_10h17.34.373,VisualSearchFaces,2024.2.4,Win32,60.24096386,,,,,,,,148.1629,148.4272,148.4273,150.4272,practice1,f,1,0.3535,,0,36,36,31,1,0,top_left,friendly,no_target,,,,,,,,,,,,,,,,
,,,,,252125,m,y,r,n,12,0,2025-04-06_10h17.34.373,VisualSearchFaces,2024.2.4,Win32,60.24096386,,,,,,,,151.4302,151.6939,151.694,153.689,practice1,f,1,0.3666,,0,37,37,34,1,0,bottom_right,friendly,no_target,,,,,,,,,,,,,,,,
,,,,,252125,m,y,r,n,12,0,2025-04-06_10h17.34.373,VisualSearchFaces,2024.2.4,Win32,60.24096386,,,,,,,,154.6962,154.9605,154.9606,156.9605,practice1,f,1,0.3316,,0,38,38,29,1,0,bottom_right,neutral,no_target,,,,,,,,,,,,,,,,
,,,,,252125,m,y,r,n,12,0,2025-04-06_10h17.34.373,VisualSearchFaces,2024.2.4,Win32,60.24096386,,,,,,,,157.9621,158.2267,158.2267,160.2274,practice1,f,1,0.3842,,0,39,39,35,1,0,centre,threatening,no_target,,,,,,,,,,,,,,,,
,,,,,252125,m,y,r,n,12,0,2025-04-06_10h17.34.373,VisualSearchFaces,2024.2.4,Win32,60.24096386,,,161.4344,162.661,space,1.1883,,163.6638,163.7695,163.7696,165.7632,practice2,f,1,1.1097,,0,0,0,25,1,0,centre,neutral,no_target,160.2288,161.4276,space,1.1671,,,,,,,,,,,,
,,,,,252125,m,y,r,n,12,0,2025-04-06_10h17.34.373,VisualSearchFaces,2024.2.4,Win32,60.24096386,,,,,,,,166.7704,166.875,166.8751,168.8772,practice2,j,1,1.2253,,0,1,1,18,1,1,bottom_left,threatening,neutral,,,,,,,,,,,,,,,,
,,,,,252125,m,y,r,n,12,0,2025-04-06_10h17.34.373,VisualSearchFaces,2024.2.4,Win32,60.24096386,,,,,,,,169.88,169.9899,169.99,171.9889,practice2,f,1,0.6518,,0,2,2,39,1,0,bottom_right,threatening,no_target,,,,,,,,,,,,,,,,
,,,,,252125,m,y,r,n,12,0,2025-04-06_10h17.34.373,VisualSearchFaces,2024.2.4,Win32,60.24096386,,,,,,,,172.994,173.0947,173.0948,175.0937,practice2,j,1,0.7892,,0,3,3,7,1,1,top_right,neutral,threatening,,,,,,,,,,,,,,,,
,,,,,252125,m,y,r,n,12,0,2025-04-06_10h17.34.373,VisualSearchFaces,2024.2.4,Win32,60.24096386,,,,,,,,176.0971,176.199,176.1991,178.2056,practice2,f,1,0.5248,,0,4,4,33,1,0,bottom_left,friendly,no_target,,,,,,,,,,,,,,,,
,,,,,252125,m,y,r,n,12,0,2025-04-06_10h17.34.373,VisualSearchFaces,2024.2.4,Win32,60.24096386,,,,,,,,179.1974,179.3068,179.3068,181.3078,practice2,f,0,0.9021,,0,5,5,9,1,1,bottom_right,neutral,threatening,,,,,,,,,,,,,,,,
,,,,,252125,m,y,r,n,12,0,2025-04-06_10h17.34.373,VisualSearchFaces,2024.2.4,Win32,60.24096386,,,,,,,,182.3134,182.4278,182.4279,184.4267,practice2,j,1,0.5532,,0,6,6,8,1,1,bottom_left,neutral,threatening,,,,,,,,,,,,,,,,
,,,,,252125,m,y,r,n,12,0,2025-04-06_10h17.34.373,VisualSearchFaces,2024.2.4,Win32,60.24096386,,,,,,,,185.4295,185.5432,185.5433,187.5459,practice2,f,1,0.634,,0,7,7,23,1,0,bottom_left,neutral,no_target,,,,,,,,,,,,,,,,
,,,,,252125,m,y,r,n,12,0,2025-04-06_10h17.34.373,VisualSearchFaces,2024.2.4,Win32,60.24096386,,,,,,,,188.5464,188.6438,188.6438,190.6435,practice2,j,1,0.4891,,0,8,8,4,1,1,bottom_right,neutral,friendly,,,,,,,,,,,,,,,,
,,,,,252125,m,y,r,n,12,0,2025-04-06_10h17.34.373,VisualSearchFaces,2024.2.4,Win32,60.24096386,,,,,,,,191.6459,191.7603,191.7603,193.7597,practice2,j,1,0.4392,,0,9,9,3,1,1,bottom_left,neutral,friendly,,,,,,,,,,,,,,,,
,,,,,252125,m,y,r,n,12,0,2025-04-06_10h17.34.373,VisualSearchFaces,2024.2.4,Win32,60.24096386,,,,,,,,194.7632,194.8629,194.8629,196.86,practice2,j,1,0.9488,,0,10,10,15,1,1,centre,threatening,neutral,,,,,,,,,,,,,,,,
,,,,,252125,m,y,r,n,12,0,2025-04-06_10h17.34.373,VisualSearchFaces,2024.2.4,Win32,60.24096386,,,,,,,,197.8634,197.9766,197.9767,199.9764,practice2,f,1,0.6842,,0,11,11,29,1,0,bottom_right,neutral,no_target,,,,,,,,,,,,,,,,
,,,,,252125,m,y,r,n,12,0,2025-04-06_10h17.34.373,VisualSearchFaces,2024.2.4,Win32,60.24096386,,,,,,,,200.9701,201.0766,201.0767,203.0765,practice2,f,1,0.6594,,0,12,12,28,1,0,bottom_left,neutral,no_target,,,,,,,,,,,,,,,,
,,,,,252125,m,y,r,n,12,0,2025-04-06_10h17.34.373,VisualSearchFaces,2024.2.4,Win32,60.24096386,,,,,,,,204.0795,204.1819,204.1819,206.1764,practice2,j,1,0.6822,,0,13,13,13,1,1,bottom_left,friendly,neutral,,,,,,,,,,,,,,,,
,,,,,252125,m,y,r,n,12,0,2025-04-06_10h17.34.373,VisualSearchFaces,2024.2.4,Win32,60.24096386,,,,,,,,207.1906,207.293,207.293,209.2945,practice2,j,1,0.95,,0,14,14,17,1,1,top_right,threatening,neutral,,,,,,,,,,,,,,,,
,,,,,252125,m,y,r,n,12,0,2025-04-06_10h17.34.373,VisualSearchFaces,2024.2.4,Win32,60.24096386,,,,,,,,210.2972,210.394,210.3941,212.3928,practice2,f,1,0.6343,,0,15,15,35,1,0,centre,threatening,no_target,,,,,,,,,,,,,,,,
,,,,,252125,m,y,r,n,12,0,2025-04-06_10h17.34.373,VisualSearchFaces,2024.2.4,Win32,60.24096386,,,,,,,,213.3951,213.5094,213.5095,215.5098,practice2,f,1,0.5351,,0,16,16,27,1,0,top_right,neutral,no_target,,,,,,,,,,,,,,,,
,,,,,252125,m,y,r,n,12,0,2025-04-06_10h17.34.373,VisualSearchFaces,2024.2.4,Win32,60.24096386,,,,,,,,216.5237,216.6261,216.6262,218.6216,practice2,f,1,0.7016,,0,17,17,22,1,0,top_right,neutral,no_target,,,,,,,,,,,,,,,,
,,,,,252125,m,y,r,n,12,0,2025-04-06_10h17.34.373,VisualSearchFaces,2024.2.4,Win32,60.24096386,,,,,,,,219.6282,219.7276,219.7277,221.7262,practice2,j,1,0.6146,,0,18,18,6,1,1,top_left,neutral,threatening,,,,,,,,,,,,,,,,
,,,,,252125,m,y,r,n,12,0,2025-04-06_10h17.34.373,VisualSearchFaces,2024.2.4,Win32,60.24096386,,,,,,,,222.7286,222.8431,222.8431,224.8353,practice2,f,1,0.4853,,0,19,19,26,1,0,top_left,neutral,no_target,,,,,,,,,,,,,,,,
,,,,,252125,m,y,r,n,12,0,2025-04-06_10h17.34.373,VisualSearchFaces,2024.2.4,Win32,60.24096386,,,,,,,,225.8452,225.9594,225.9595,227.9597,practice2,f,1,0.6441,,0,20,20,31,1,0,top_left,friendly,no_target,,,,,,,,,,,,,,,,
,,,,,252125,m,y,r,n,12,0,2025-04-06_10h17.34.373,VisualSearchFaces,2024.2.4,Win32,60.24096386,,,,,,,,228.962,229.0762,229.0762,231.0894,practice2,f,1,0.7261,,0,21,21,20,1,0,centre,neutral,no_target,,,,,,,,,,,,,,,,
,,,,,252125,m,y,r,n,12,0,2025-04-06_10h17.34.373,VisualSearchFaces,2024.2.4,Win32,60.24096386,,,,,,,,232.0805,232.1932,232.1932,234.1861,practice2,f,1,0.6686,,0,22,22,36,1,0,top_left,threatening,no_target,,,,,,,,,,,,,,,,
,,,,,252125,m,y,r,n,12,0,2025-04-06_10h17.34.373,VisualSearchFaces,2024.2.4,Win32,60.24096386,,,,,,,,235.1964,235.3096,235.3097,237.3096,practice2,j,1,0.5365,,0,23,23,2,1,1,top_right,neutral,friendly,,,,,,,,,,,,,,,,
,,,,,252125,m,y,r,n,12,0,2025-04-06_10h17.34.373,VisualSearchFaces,2024.2.4,Win32,60.24096386,,,,,,,,238.311,238.4258,238.4259,240.426,practice2,j,1,0.8828,,0,24,24,14,1,1,bottom_right,friendly,neutral,,,,,,,,,,,,,,,,
,,,,,252125,m,y,r,n,12,0,2025-04-06_10h17.34.373,VisualSearchFaces,2024.2.4,Win32,60.24096386,,,,,,,,241.4282,241.5429,241.5429,243.5423,practice2,j,1,0.4384,,0,25,25,12,1,1,top_right,friendly,neutral,,,,,,,,,,,,,,,,
,,,,,252125,m,y,r,n,12,0,2025-04-06_10h17.34.373,VisualSearchFaces,2024.2.4,Win32,60.24096386,,,,,,,,244.5448,244.6591,244.6591,246.656,practice2,f,1,0.549,,0,26,26,37,1,0,top_right,threatening,no_target,,,,,,,,,,,,,,,,
,,,,,252125,m,y,r,n,12,0,2025-04-06_10h17.34.373,VisualSearchFaces,2024.2.4,Win32,60.24096386,,,,,,,,247.6586,247.7714,247.7714,249.7717,practice2,j,1,0.5341,,0,27,27,5,1,1,centre,neutral,threatening,,,,,,,,,,,,,,,,
,,,,,252125,m,y,r,n,12,0,2025-04-06_10h17.34.373,VisualSearchFaces,2024.2.4,Win32,60.24096386,,,,,,,,250.7739,250.8758,250.8758,252.8757,practice2,j,1,0.5962,,0,28,28,16,1,1,top_left,threatening,neutral,,,,,,,,,,,,,,,,
,,,,,252125,m,y,r,n,12,0,2025-04-06_10h17.34.373,VisualSearchFaces,2024.2.4,Win32,60.24096386,,,,,,,,253.8816,253.9923,253.9924,255.9924,practice2,,0,,,0,29,29,1,1,1,top_left,neutral,friendly,,,,,,,,,,,,,,,,
,,,,,252125,m,y,r,n,12,0,2025-04-06_10h17.34.373,VisualSearchFaces,2024.2.4,Win32,60.24096386,,,,,,,,256.9945,257.0926,257.0927,259.0922,practice2,f,1,0.7583,,0,30,30,21,1,0,top_left,neutral,no_target,,,,,,,,,,,,,,,,
,,,,,252125,m,y,r,n,12,0,2025-04-06_10h17.34.373,VisualSearchFaces,2024.2.4,Win32,60.24096386,,,,,,,,260.0955,260.209,260.2091,262.2085,practice2,j,1,0.8003,,0,31,31,11,1,1,top_left,friendly,neutral,,,,,,,,,,,,,,,,
,,,,,252125,m,y,r,n,12,0,2025-04-06_10h17.34.373,VisualSearchFaces,2024.2.4,Win32,60.24096386,,,,,,,,263.2113,263.3139,263.3139,265.3135,practice2,f,1,1.9116,,0,32,32,24,1,0,bottom_right,neutral,no_target,,,,,,,,,,,,,,,,
,,,,,252125,m,y,r,n,12,0,2025-04-06_10h17.34.373,VisualSearchFaces,2024.2.4,Win32,60.24096386,,,,,,,,266.3113,266.4387,266.4388,268.4422,practice2,f,1,1.0056,,0,33,33,34,1,0,bottom_right,friendly,no_target,,,,,,,,,,,,,,,,
,,,,,252125,m,y,r,n,12,0,2025-04-06_10h17.34.373,VisualSearchFaces,2024.2.4,Win32,60.24096386,,,,,,,,269.4465,269.5587,269.5588,271.56,practice2,f,1,0.8014,,0,34,34,38,1,0,bottom_left,threatening,no_target,,,,,,,,,,,,,,,,
,,,,,252125,m,y,r,n,12,0,2025-04-06_10h17.34.373,VisualSearchFaces,2024.2.4,Win32,60.24096386,,,,,,,,272.5628,272.6608,272.6609,274.6491,practice2,f,1,0.7502,,0,35,35,32,1,0,top_right,friendly,no_target,,,,,,,,,,,,,,,,
,,,,,252125,m,y,r,n,12,0,2025-04-06_10h17.34.373,VisualSearchFaces,2024.2.4,Win32,60.24096386,,,,,,,,275.6646,275.7665,275.7665,277.759,practice2,j,1,0.7298,,0,36,36,10,1,1,centre,friendly,neutral,,,,,,,,,,,,,,,,
,,,,,252125,m,y,r,n,12,0,2025-04-06_10h17.34.373,VisualSearchFaces,2024.2.4,Win32,60.24096386,,,,,,,,278.7644,278.8754,278.8755,280.8732,practice2,j,1,0.4795,,0,37,37,19,1,1,bottom_right,threatening,neutral,,,,,,,,,,,,,,,,
,,,,,252125,m,y,r,n,12,0,2025-04-06_10h17.34.373,VisualSearchFaces,2024.2.4,Win32,60.24096386,,,,,,,,281.8767,281.9755,281.9756,283.9867,practice2,j,1,0.6902,,0,38,38,0,1,1,centre,neutral,friendly,,,,,,,,,,,,,,,,
,,,,,252125,m,y,r,n,12,0,2025-04-06_10h17.34.373,VisualSearchFaces,2024.2.4,Win32,60.24096386,,,,,,,,284.9719,285.0751,285.0752,287.0758,practice2,j,0,0.7709,,0,39,39,30,1,0,centre,friendly,no_target,,,,,,,,,,,,,,,,
,,,,,252125,m,y,r,n,12,0,2025-04-06_10h17.34.373,VisualSearchFaces,2024.2.4,Win32,60.24096386,,,288.413,289.0419,space,0.6013,,290.0474,290.1432,290.1433,292.142,block1,j,1,0.7088,,0,0,0,18,1,1,bottom_left,threatening,neutral,287.0794,288.4087,space,1.3016,,,,,,,,,,,,
,,,,,252125,m,y,r,n,12,0,2025-04-06_10h17.34.373,VisualSearchFaces,2024.2.4,Win32,60.24096386,,,,,,,,293.144,293.2423,293.2424,295.2418,block1,j,1,0.4515,,0,1,1,8,1,1,bottom_left,neutral,threatening,,,,,,,,,,,,,,,,
,,,,,252125,m,y,r,n,12,0,2025-04-06_10h17.34.373,VisualSearchFaces,2024.2.4,Win32,60.24096386,,,,,,,,296.2455,296.347,296.3471,298.3537,block1,f,1,0.6135,,0,2,2,34,1,0,bottom_right,friendly,no_target,,,,,,,,,,,,,,,,
,,,,,252125,m,y,r,n,12,0,2025-04-06_10h17.34.373,VisualSearchFaces,2024.2.4,Win32,60.24096386,,,,,,,,299.3459,299.4609,299.461,301.4587,block1,j,1,0.6536,,0,3,3,4,1,1,bottom_right,neutral,friendly,,,,,,,,,,,,,,,,
,,,,,252125,m,y,r,n,12,0,2025-04-06_10h17.34.373,VisualSearchFaces,2024.2.4,Win32,60.24096386,,,,,,,,302.4614,302.5661,302.5662,304.5591,block1,f,1,1.2241,,0,4,4,24,1,0,bottom_right,neutral,no_target,,,,,,,,,,,,,,,,
,,,,,252125,m,y,r,n,12,0,2025-04-06_10h17.34.373,VisualSearchFaces,2024.2.4,Win32,60.24096386,,,,,,,,305.574,305.6752,305.6752,307.6753,block1,j,1,0.9192,,0,5,5,19,1,1,bottom_right,threatening,neutral,,,,,,,,,,,,,,,,
,,,,,252125,m,y,r,n,12,0,2025-04-06_10h17.34.373,VisualSearchFaces,2024.2.4,Win32,60.24096386,,,,,,,,308.6779,308.7928,308.793,310.7924,block1,f,1,0.553,,0,6,6,22,1,0,top_right,neutral,no_target,,,,,,,,,,,,,,,,
,,,,,252125,m,y,r,n,12,0,2025-04-06_10h17.34.373,VisualSearchFaces,2024.2.4,Win32,60.24096386,,,,,,,,311.7939,311.9084,311.9085,313.9196,block1,f,1,0.7,,0,7,7,33,1,0,bottom_left,friendly,no_target,,,,,,,,,,,,,,,,
,,,,,252125,m,y,r,n,12,0,2025-04-06_10h17.34.373,VisualSearchFaces,2024.2.4,Win32,60.24096386,,,,,,,,314.9109,315.0166,315.0167,317.0082,block1,f,1,0.5922,,0,8,8,30,1,0,centre,friendly,no_target,,,,,,,,,,,,,,,,
,,,,,252125,m,y,r,n,12,0,2025-04-06_10h17.34.373,VisualSearchFaces,2024.2.4,Win32,60.24096386,,,,,,,,318.0101,318.1112,318.1112,320.1003,block1,f,1,0.5075,,0,9,9,27,1,0,top_right,neutral,no_target,,,,,,,,,,,,,,,,
,,,,,252125,m,y,r,n,12,0,2025-04-06_10h17.34.373,VisualSearchFaces,2024.2.4,Win32,60.24096386,,,,,,,,321.1112,321.2118,321.2119,323.2209,block1,f,1,0.369,,0,10,10,29,1,0,bottom_right,neutral,no_target,,,,,,,,,,,,,,,,
,,,,,252125,m,y,r,n,12,0,2025-04-06_10h17.34.373,VisualSearchFaces,2024.2.4,Win32,60.24096386,,,,,,,,324.2209,324.325,324.3251,326.3248,block1,j,1,0.5009,,0,11,11,5,1,1,centre,neutral,threatening,,,,,,,,,,,,,,,,
,,,,,252125,m,y,r,n,12,0,2025-04-06_10h17.34.373,VisualSearchFaces,2024.2.4,Win32,60.24096386,,,,,,,,327.3277,327.426,327.426,329.4271,block1,f,1,0.562,,0,12,12,37,1,0,top_right,threatening,no_target,,,,,,,,,,,,,,,,
,,,,,252125,m,y,r,n,12,0,2025-04-06_10h17.34.373,VisualSearchFaces,2024.2.4,Win32,60.24096386,,,,,,,,330.4275,330.531,330.531,332.5244,block1,j,1,0.564,,0,13,13,11,1,1,top_left,friendly,neutral,,,,,,,,,,,,,,,,
,,,,,252125,m,y,r,n,12,0,2025-04-06_10h17.34.373,VisualSearchFaces,2024.2.4,Win32,60.24096386,,,,,,,,333.5268,333.6309,333.6311,335.6265,block1,f,1,0.544,,0,14,14,38,1,0,bottom_left,threatening,no_target,,,,,,,,,,,,,,,,
,,,,,252125,m,y,r,n,12,0,2025-04-06_10h17.34.373,VisualSearchFaces,2024.2.4,Win32,60.24096386,,,,,,,,336.6281,336.7416,336.7417,338.741,block1,j,1,1.1693,,0,15,15,16,1,1,top_left,threatening,neutral,,,,,,,,,,,,,,,,
,,,,,252125,m,y,r,n,12,0,2025-04-06_10h17.34.373,VisualSearchFaces,2024.2.4,Win32,60.24096386,,,,,,,,339.7438,339.8471,339.8473,341.8416,block1,,0,,,0,16,16,32,1,0,top_right,friendly,no_target,,,,,,,,,,,,,,,,
,,,,,252125,m,y,r,n,12,0,2025-04-06_10h17.34.373,VisualSearchFaces,2024.2.4,Win32,60.24096386,,,,,,,,342.8439,342.9542,342.9543,344.9421,block1,j,1,1.4074,,0,17,17,3,1,1,bottom_left,neutral,friendly,,,,,,,,,,,,,,,,
,,,,,252125,m,y,r,n,12,0,2025-04-06_10h17.34.373,VisualSearchFaces,2024.2.4,Win32,60.24096386,,,,,,,,345.9612,346.0657,346.0658,348.0575,block1,j,1,1.1103,,0,18,18,13,1,1,bottom_left,friendly,neutral,,,,,,,,,,,,,,,,
,,,,,252125,m,y,r,n,12,0,2025-04-06_10h17.34.373,VisualSearchFaces,2024.2.4,Win32,60.24096386,,,,,,,,349.0602,349.1624,349.1625,351.1575,block1,j,1,0.4297,,0,19,19,15,1,1,centre,threatening,neutral,,,,,,,,,,,,,,,,
,,,,,252125,m,y,r,n,12,0,2025-04-06_10h17.34.373,VisualSearchFaces,2024.2.4,Win32,60.24096386,,,,,,,,352.1605,352.2743,352.2743,354.2635,block1,,0,,,0,20,20,9,1,1,bottom_right,neutral,threatening,,,,,,,,,,,,,,,,
,,,,,252125,m,y,r,n,12,0,2025-04-06_10h17.34.373,VisualSearchFaces,2024.2.4,Win32,60.24096386,,,,,,,,355.2775,355.3776,355.3776,357.3699,block1,f,1,0.4921,,0,21,21,36,1,0,top_left,threatening,no_target,,,,,,,,,,,,,,,,
,,,,,252125,m,y,r,n,12,0,2025-04-06_10h17.34.373,VisualSearchFaces,2024.2.4,Win32,60.24096386,,,,,,,,358.3772,358.4785,358.4786,360.4741,block1,,0,,,0,22,22,35,1,0,centre,threatening,no_target,,,,,,,,,,,,,,,,
,,,,,252125,m,y,r,n,12,0,2025-04-06_10h17.34.373,VisualSearchFaces,2024.2.4,Win32,60.24096386,,,,,,,,361.4787,361.6034,361.6034,363.6076,block1,f,1,0.4662,,0,23,23,20,1,0,centre,neutral,no_target,,,,,,,,,,,,,,,,
,,,,,252125,m,y,r,n,12,0,2025-04-06_10h17.34.373,VisualSearchFaces,2024.2.4,Win32,60.24096386,,,,,,,,364.6094,364.71,364.7101,366.7076,block1,j,1,0.5467,,0,24,24,6,1,1,top_left,neutral,threatening,,,,,,,,,,,,,,,,
,,,,,252125,m,y,r,n,12,0,2025-04-06_10h17.34.373,VisualSearchFaces,2024.2.4,Win32,60.24096386,,,,,,,,367.7099,367.8204,367.8205,369.8242,block1,j,1,0.484,,0,25,25,2,1,1,top_right,neutral,friendly,,,,,,,,,,,,,,,,
,,,,,252125,m,y,r,n,12,0,2025-04-06_10h17.34.373,VisualSearchFaces,2024.2.4,Win32,60.24096386,,,,,,,,370.8281,370.9334,370.9335,372.9241,block1,j,1,0.4932,,0,26,26,17,1,1,top_right,threatening,neutral,,,,,,,,,,,,,,,,
,,,,,252125,m,y,r,n,12,0,2025-04-06_10h17.34.373,VisualSearchFaces,2024.2.4,Win32,60.24096386,,,,,,,,373.9279,374.0259,374.026,376.0239,block1,j,1,0.4633,,0,27,27,12,1,1,top_right,friendly,neutral,,,,,,,,,,,,,,,,
,,,,,252125,m,y,r,n,12,0,2025-04-06_10h17.34.373,VisualSearchFaces,2024.2.4,Win32,60.24096386,,,,,,,,377.0284,377.1538,377.1539,379.1573,block1,j,1,0.5867,,0,28,28,14,1,1,bottom_right,friendly,neutral,,,,,,,,,,,,,,,,
,,,,,252125,m,y,r,n,12,0,2025-04-06_10h17.34.373,VisualSearchFaces,2024.2.4,Win32,60.24096386,,,,,,,,380.1604,380.2741,380.2742,382.2753,block1,f,1,0.5869,,0,29,29,21,1,0,top_left,neutral,no_target,,,,,,,,,,,,,,,,
,,,,,252125,m,y,r,n,12,0,2025-04-06_10h17.34.373,VisualSearchFaces,2024.2.4,Win32,60.24096386,,,,,,,,383.2775,383.3855,383.3856,385.3749,block1,j,1,0.4823,,0,30,30,7,1,1,top_right,neutral,threatening,,,,,,,,,,,,,,,,
,,,,,252125,m,y,r,n,12,0,2025-04-06_10h17.34.373,VisualSearchFaces,2024.2.4,Win32,60.24096386,,,,,,,,386.3766,386.4744,386.4745,388.4795,block1,f,1,0.8943,,0,31,31,39,1,0,bottom_right,threatening,no_target,,,,,,,,,,,,,,,,
,,,,,252125,m,y,r,n,12,0,2025-04-06_10h17.34.373,VisualSearchFaces,2024.2.4,Win32,60.24096386,,,,,,,,389.4713,389.5776,389.5777,391.5737,block1,j,1,0.4631,,0,32,32,10,1,1,centre,friendly,neutral,,,,,,,,,,,,,,,,
,,,,,252125,m,y,r,n,12,0,2025-04-06_10h17.34.373,VisualSearchFaces,2024.2.4,Win32,60.24096386,,,,,,,,392.5761,392.6833,392.6833,394.6752,block1,f,1,0.5023,,0,33,33,25,1,0,centre,neutral,no_target,,,,,,,,,,,,,,,,
,,,,,252125,m,y,r,n,12,0,2025-04-06_10h17.34.373,VisualSearchFaces,2024.2.4,Win32,60.24096386,,,,,,,,395.6764,395.7875,395.7875,397.7866,block1,f,1,0.6029,,0,34,34,26,1,0,top_left,neutral,no_target,,,,,,,,,,,,,,,,
,,,,,252125,m,y,r,n,12,0,2025-04-06_10h17.34.373,VisualSearchFaces,2024.2.4,Win32,60.24096386,,,,,,,,398.7776,398.8914,398.8915,400.9028,block1,f,1,0.7325,,0,35,35,31,1,0,top_left,friendly,no_target,,,,,,,,,,,,,,,,
,,,,,252125,m,y,r,n,12,0,2025-04-06_10h17.34.373,VisualSearchFaces,2024.2.4,Win32,60.24096386,,,,,,,,401.8883,401.9941,401.9941,403.9903,block1,j,1,0.5769,,0,36,36,1,1,1,top_left,neutral,friendly,,,,,,,,,,,,,,,,
,,,,,252125,m,y,r,n,12,0,2025-04-06_10h17.34.373,VisualSearchFaces,2024.2.4,Win32,60.24096386,,,,,,,,404.9923,405.0911,405.0912,407.0904,block1,f,1,0.5024,,0,37,37,28,1,0,bottom_left,neutral,no_target,,,,,,,,,,,,,,,,
,,,,,252125,m,y,r,n,12,0,2025-04-06_10h17.34.373,VisualSearchFaces,2024.2.4,Win32,60.24096386,,,,,,,,408.0853,408.191,408.1911,410.1824,block1,f,1,0.4302,,0,38,38,23,1,0,bottom_left,neutral,no_target,,,,,,,,,,,,,,,,
,,,,,252125,m,y,r,n,12,0,2025-04-06_10h17.34.373,VisualSearchFaces,2024.2.4,Win32,60.24096386,,,,,,,,411.1954,411.3067,411.3067,413.3089,block1,j,1,0.7168,,0,39,39,0,1,1,centre,neutral,friendly,,,,,,,,,,,,,,,,
,,,,,252125,m,y,r,n,12,0,2025-04-06_10h17.34.373,VisualSearchFaces,2024.2.4,Win32,60.24096386,,,,,,,,414.3067,414.4146,414.4147,416.419,block1,f,1,0.625,,1,0,40,21,1,0,top_left,neutral,no_target,,,,,,,,,,,,,,,,
,,,,,252125,m,y,r,n,12,0,2025-04-06_10h17.34.373,VisualSearchFaces,2024.2.4,Win32,60.24096386,,,,,,,,417.4104,417.5095,417.5096,419.5068,block1,j,1,0.4371,,1,1,41,6,1,1,top_left,neutral,threatening,,,,,,,,,,,,,,,,
,,,,,252125,m,y,r,n,12,0,2025-04-06_10h17.34.373,VisualSearchFaces,2024.2.4,Win32,60.24096386,,,,,,,,420.5105,420.6252,420.6252,422.6233,block1,j,1,0.4848,,1,2,42,7,1,1,top_right,neutral,threatening,,,,,,,,,,,,,,,,
,,,,,252125,m,y,r,n,12,0,2025-04-06_10h17.34.373,VisualSearchFaces,2024.2.4,Win32,60.24096386,,,,,,,,423.6224,423.7241,423.7243,425.7259,block1,f,1,0.565,,1,3,43,32,1,0,top_right,friendly,no_target,,,,,,,,,,,,,,,,
,,,,,252125,m,y,r,n,12,0,2025-04-06_10h17.34.373,VisualSearchFaces,2024.2.4,Win32,60.24096386,,,,,,,,426.7166,426.8233,426.8234,428.8233,block1,f,1,0.535,,1,4,44,37,1,0,top_right,threatening,no_target,,,,,,,,,,,,,,,,
,,,,,252125,m,y,r,n,12,0,2025-04-06_10h17.34.373,VisualSearchFaces,2024.2.4,Win32,60.24096386,,,,,,,,429.8388,429.94,429.94,431.9397,block1,f,1,0.504,,1,5,45,31,1,0,top_left,friendly,no_target,,,,,,,,,,,,,,,,
,,,,,252125,m,y,r,n,12,0,2025-04-06_10h17.34.373,VisualSearchFaces,2024.2.4,Win32,60.24096386,,,,,,,,432.9429,433.043,433.0431,435.0397,block1,j,1,1.1176,,1,6,46,8,1,1,bottom_left,neutral,threatening,,,,,,,,,,,,,,,,
,,,,,252125,m,y,r,n,12,0,2025-04-06_10h17.34.373,VisualSearchFaces,2024.2.4,Win32,60.24096386,,,,,,,,436.0544,436.1636,436.1636,438.1582,block1,f,1,0.4774,,1,7,47,38,1,0,bottom_left,threatening,no_target,,,,,,,,,,,,,,,,
,,,,,252125,m,y,r,n,12,0,2025-04-06_10h17.34.373,VisualSearchFaces,2024.2.4,Win32,60.24096386,,,,,,,,439.1579,439.2657,439.2657,441.257,block1,f,1,0.4193,,1,8,48,25,1,0,centre,neutral,no_target,,,,,,,,,,,,,,,,
,,,,,252125,m,y,r,n,12,0,2025-04-06_10h17.34.373,VisualSearchFaces,2024.2.4,Win32,60.24096386,,,,,,,,442.2666,442.3666,442.3668,444.3685,block1,j,1,0.4237,,1,9,49,2,1,1,top_right,neutral,friendly,,,,,,,,,,,,,,,,
,,,,,252125,m,y,r,n,12,0,2025-04-06_10h17.34.373,VisualSearchFaces,2024.2.4,Win32,60.24096386,,,,,,,,445.3609,445.4621,445.4622,447.4697,block1,f,1,0.4681,,1,10,50,36,1,0,top_left,threatening,no_target,,,,,,,,,,,,,,,,
,,,,,252125,m,y,r,n,12,0,2025-04-06_10h17.34.373,VisualSearchFaces,2024.2.4,Win32,60.24096386,,,,,,,,448.4624,448.573,448.5731,450.5685,block1,j,1,0.4703,,1,11,51,19,1,1,bottom_right,threatening,neutral,,,,,,,,,,,,,,,,
,,,,,252125,m,y,r,n,12,0,2025-04-06_10h17.34.373,VisualSearchFaces,2024.2.4,Win32,60.24096386,,,,,,,,451.572,451.6752,451.6752,453.6731,block1,f,1,0.5491,,1,12,52,34,1,0,bottom_right,friendly,no_target,,,,,,,,,,,,,,,,
,,,,,252125,m,y,r,n,12,0,2025-04-06_10h17.34.373,VisualSearchFaces,2024.2.4,Win32,60.24096386,,,,,,,,454.6678,454.7692,454.7693,456.7609,block1,f,1,1.1596,,1,13,53,35,1,0,centre,threatening,no_target,,,,,,,,,,,,,,,,
,,,,,252125,m,y,r,n,12,0,2025-04-06_10h17.34.373,VisualSearchFaces,2024.2.4,Win32,60.24096386,,,,,,,,457.7772,457.8784,457.8784,459.8692,block1,f,1,0.6197,,1,14,54,23,1,0,bottom_left,neutral,no_target,,,,,,,,,,,,,,,,
,,,,,252125,m,y,r,n,12,0,2025-04-06_10h17.34.373,VisualSearchFaces,2024.2.4,Win32,60.24096386,,,,,,,,460.8713,460.9751,460.9752,462.9731,block1,j,1,0.5675,,1,15,55,9,1,1,bottom_right,neutral,threatening,,,,,,,,,,,,,,,,
,,,,,252125,m,y,r,n,12,0,2025-04-06_10h17.34.373,VisualSearchFaces,2024.2.4,Win32,60.24096386,,,,,,,,463.9744,464.073,464.0732,466.0709,block1,f,0,0.6524,,1,16,56,11,1,1,top_left,friendly,neutral,,,,,,,,,,,,,,,,
,,,,,252125,m,y,r,n,12,0,2025-04-06_10h17.34.373,VisualSearchFaces,2024.2.4,Win32,60.24096386,,,,,,,,467.0794,467.1862,467.1863,469.1753,block1,j,1,1.1028,,1,17,57,4,1,1,bottom_right,neutral,friendly,,,,,,,,,,,,,,,,
,,,,,252125,m,y,r,n,12,0,2025-04-06_10h17.34.373,VisualSearchFaces,2024.2.4,Win32,60.24096386,,,,,,,,470.1772,470.291,470.2911,472.2857,block1,f,1,0.5029,,1,18,58,29,1,0,bottom_right,neutral,no_target,,,,,,,,,,,,,,,,
,,,,,252125,m,y,r,n,12,0,2025-04-06_10h17.34.373,VisualSearchFaces,2024.2.4,Win32,60.24096386,,,,,,,,473.2781,473.384,473.384,475.3692,block1,j,1,0.5214,,1,19,59,13,1,1,bottom_left,friendly,neutral,,,,,,,,,,,,,,,,
,,,,,252125,m,y,r,n,12,0,2025-04-06_10h17.34.373,VisualSearchFaces,2024.2.4,Win32,60.24096386,,,,,,,,476.3982,476.496,476.4961,478.4877,block1,j,1,0.4638,,1,20,60,18,1,1,bottom_left,threatening,neutral,,,,,,,,,,,,,,,,
,,,,,252125,m,y,r,n,12,0,2025-04-06_10h17.34.373,VisualSearchFaces,2024.2.4,Win32,60.24096386,,,,,,,,479.4983,479.6074,479.6074,481.5966,block1,j,1,0.494,,1,21,61,17,1,1,top_right,threatening,neutral,,,,,,,,,,,,,,,,
,,,,,252125,m,y,r,n,12,0,2025-04-06_10h17.34.373,VisualSearchFaces,2024.2.4,Win32,60.24096386,,,,,,,,482.6097,482.7094,482.7094,484.7058,block1,j,1,0.4865,,1,22,62,1,1,1,top_left,neutral,friendly,,,,,,,,,,,,,,,,
,,,,,252125,m,y,r,n,12,0,2025-04-06_10h17.34.373,VisualSearchFaces,2024.2.4,Win32,60.24096386,,,,,,,,485.6999,485.809,485.809,487.8059,block1,j,1,0.4012,,1,23,63,0,1,1,centre,neutral,friendly,,,,,,,,,,,,,,,,
,,,,,252125,m,y,r,n,12,0,2025-04-06_10h17.34.373,VisualSearchFaces,2024.2.4,Win32,60.24096386,,,,,,,,488.8106,488.9136,488.9137,490.9022,block1,j,1,0.4356,,1,24,64,12,1,1,top_right,friendly,neutral,,,,,,,,,,,,,,,,
,,,,,252125,m,y,r,n,12,0,2025-04-06_10h17.34.373,VisualSearchFaces,2024.2.4,Win32,60.24096386,,,,,,,,491.9148,492.0224,492.0224,494.0138,block1,f,1,0.5183,,1,25,65,22,1,0,top_right,neutral,no_target,,,,,,,,,,,,,,,,
,,,,,252125,m,y,r,n,12,0,2025-04-06_10h17.34.373,VisualSearchFaces,2024.2.4,Win32,60.24096386,,,,,,,,495.0259,495.1519,495.1521,497.1567,block1,j,1,0.4406,,1,26,66,16,1,1,top_left,threatening,neutral,,,,,,,,,,,,,,,,
,,,,,252125,m,y,r,n,12,0,2025-04-06_10h17.34.373,VisualSearchFaces,2024.2.4,Win32,60.24096386,,,,,,,,498.1437,498.2486,498.2488,500.2396,block1,f,1,0.4453,,1,27,67,30,1,0,centre,friendly,no_target,,,,,,,,,,,,,,,,
,,,,,252125,m,y,r,n,12,0,2025-04-06_10h17.34.373,VisualSearchFaces,2024.2.4,Win32,60.24096386,,,,,,,,501.2412,501.3397,501.3398,503.3351,block1,f,1,0.5666,,1,28,68,33,1,0,bottom_left,friendly,no_target,,,,,,,,,,,,,,,,
,,,,,252125,m,y,r,n,12,0,2025-04-06_10h17.34.373,VisualSearchFaces,2024.2.4,Win32,60.24096386,,,,,,,,504.3395,504.4459,504.4459,506.4397,block1,j,1,0.5097,,1,29,69,5,1,1,centre,neutral,threatening,,,,,,,,,,,,,,,,
,,,,,252125,m,y,r,n,12,0,2025-04-06_10h17.34.373,VisualSearchFaces,2024.2.4,Win32,60.24096386,,,,,,,,507.4412,507.5402,507.5402,509.5291,block1,f,1,0.5869,,1,30,70,39,1,0,bottom_right,threatening,no_target,,,,,,,,,,,,,,,,
,,,,,252125,m,y,r,n,12,0,2025-04-06_10h17.34.373,VisualSearchFaces,2024.2.4,Win32,60.24096386,,,,,,,,510.5418,510.6393,510.6393,512.6298,block1,j,1,0.4654,,1,31,71,3,1,1,bottom_left,neutral,friendly,,,,,,,,,,,,,,,,
,,,,,252125,m,y,r,n,12,0,2025-04-06_10h17.34.373,VisualSearchFaces,2024.2.4,Win32,60.24096386,,,,,,,,513.6423,513.7395,513.7395,515.7508,block1,f,1,0.4885,,1,32,72,28,1,0,bottom_left,neutral,no_target,,,,,,,,,,,,,,,,
,,,,,252125,m,y,r,n,12,0,2025-04-06_10h17.34.373,VisualSearchFaces,2024.2.4,Win32,60.24096386,,,,,,,,516.7244,516.8239,516.824,518.8344,block1,f,1,0.7328,,1,33,73,26,1,0,top_left,neutral,no_target,,,,,,,,,,,,,,,,
,,,,,252125,m,y,r,n,12,0,2025-04-06_10h17.34.373,VisualSearchFaces,2024.2.4,Win32,60.24096386,,,,,,,,519.8225,519.9312,519.9312,521.9219,block1,j,1,0.5061,,1,34,74,10,1,1,centre,friendly,neutral,,,,,,,,,,,,,,,,
,,,,,252125,m,y,r,n,12,0,2025-04-06_10h17.34.373,VisualSearchFaces,2024.2.4,Win32,60.24096386,,,,,,,,522.9314,523.0512,523.0513,525.0556,block1,f,1,0.52,,1,35,75,20,1,0,centre,neutral,no_target,,,,,,,,,,,,,,,,
,,,,,252125,m,y,r,n,12,0,2025-04-06_10h17.34.373,VisualSearchFaces,2024.2.4,Win32,60.24096386,,,,,,,,526.0577,526.1556,526.1557,528.1563,block1,f,1,0.4196,,1,36,76,24,1,0,bottom_right,neutral,no_target,,,,,,,,,,,,,,,,
,,,,,252125,m,y,r,n,12,0,2025-04-06_10h17.34.373,VisualSearchFaces,2024.2.4,Win32,60.24096386,,,,,,,,529.1599,529.2849,529.2849,531.2762,block1,j,1,0.5522,,1,37,77,15,1,1,centre,threatening,neutral,,,,,,,,,,,,,,,,
,,,,,252125,m,y,r,n,12,0,2025-04-06_10h17.34.373,VisualSearchFaces,2024.2.4,Win32,60.24096386,,,,,,,,532.2836,532.3904,532.3905,534.3905,block1,f,1,0.5757,,1,38,78,27,1,0,top_right,neutral,no_target,,,,,,,,,,,,,,,,
,,,,,252125,m,y,r,n,12,0,2025-04-06_10h17.34.373,VisualSearchFaces,2024.2.4,Win32,60.24096386,,,,,,,,535.3963,535.5185,535.5186,537.5066,block1,j,1,0.871,,1,39,79,14,1,1,bottom_right,friendly,neutral,,,,,,,,,,,,,,,,
,,,,,252125,m,y,r,n,12,0,2025-04-06_10h17.34.373,VisualSearchFaces,2024.2.4,Win32,60.24096386,,,539.0086,539.6363,space,0.598,,540.641,540.7423,540.7423,542.7388,block2,j,1,0.4649,,0,0,0,7,1,1,top_right,neutral,threatening,537.5105,539.0044,space,1.4674,,,,,,,,,,,,
,,,,,252125,m,y,r,n,12,0,2025-04-06_10h17.34.373,VisualSearchFaces,2024.2.4,Win32,60.24096386,,,,,,,,543.7327,543.8384,543.8384,545.8385,block2,f,1,0.3701,,0,1,1,20,1,0,centre,neutral,no_target,,,,,,,,,,,,,,,,
,,,,,252125,m,y,r,n,12,0,2025-04-06_10h17.34.373,VisualSearchFaces,2024.2.4,Win32,60.24096386,,,,,,,,546.8403,546.9548,546.9548,548.9442,block2,f,1,1.161,,0,2,2,34,1,0,bottom_right,friendly,no_target,,,,,,,,,,,,,,,,
,,,,,252125,m,y,r,n,12,0,2025-04-06_10h17.34.373,VisualSearchFaces,2024.2.4,Win32,60.24096386,,,,,,,,549.9475,550.0633,550.0633,552.0552,block2,j,1,0.5052,,0,3,3,10,1,1,centre,friendly,neutral,,,,,,,,,,,,,,,,
,,,,,252125,m,y,r,n,12,0,2025-04-06_10h17.34.373,VisualSearchFaces,2024.2.4,Win32,60.24096386,,,,,,,,553.069,553.1716,553.1717,555.165,block2,f,1,0.5348,,0,4,4,29,1,0,bottom_right,neutral,no_target,,,,,,,,,,,,,,,,
,,,,,252125,m,y,r,n,12,0,2025-04-06_10h17.34.373,VisualSearchFaces,2024.2.4,Win32,60.24096386,,,,,,,,556.187,556.3016,556.3016,558.3013,block2,j,1,0.5182,,0,5,5,13,1,1,bottom_left,friendly,neutral,,,,,,,,,,,,,,,,
,,,,,252125,m,y,r,n,12,0,2025-04-06_10h17.34.373,VisualSearchFaces,2024.2.4,Win32,60.24096386,,,,,,,,559.3032,559.4111,559.4112,561.4052,block2,j,1,0.5982,,0,6,6,5,1,1,centre,neutral,threatening,,,,,,,,,,,,,,,,
,,,,,252125,m,y,r,n,12,0,2025-04-06_10h17.34.373,VisualSearchFaces,2024.2.4,Win32,60.24096386,,,,,,,,562.4061,562.5216,562.5217,564.5176,block2,j,1,0.5831,,0,7,7,0,1,1,centre,neutral,friendly,,,,,,,,,,,,,,,,
,,,,,252125,m,y,r,n,12,0,2025-04-06_10h17.34.373,VisualSearchFaces,2024.2.4,Win32,60.24096386,,,,,,,,565.5241,565.6267,565.6267,567.6212,block2,j,1,0.6634,,0,8,8,18,1,1,bottom_left,threatening,neutral,,,,,,,,,,,,,,,,
,,,,,252125,m,y,r,n,12,0,2025-04-06_10h17.34.373,VisualSearchFaces,2024.2.4,Win32,60.24096386,,,,,,,,568.6234,568.7216,568.7218,570.7217,block2,j,1,0.5342,,0,9,9,11,1,1,top_left,friendly,neutral,,,,,,,,,,,,,,,,
,,,,,252125,m,y,r,n,12,0,2025-04-06_10h17.34.373,VisualSearchFaces,2024.2.4,Win32,60.24096386,,,,,,,,571.7252,571.8407,571.8407,573.8399,block2,f,1,0.8075,,0,10,10,35,1,0,centre,threatening,no_target,,,,,,,,,,,,,,,,
,,,,,252125,m,y,r,n,12,0,2025-04-06_10h17.34.373,VisualSearchFaces,2024.2.4,Win32,60.24096386,,,,,,,,574.8406,574.9417,574.9418,576.9414,block2,f,1,0.4001,,0,11,11,21,1,0,top_left,neutral,no_target,,,,,,,,,,,,,,,,
,,,,,252125,m,y,r,n,12,0,2025-04-06_10h17.34.373,VisualSearchFaces,2024.2.4,Win32,60.24096386,,,,,,,,577.9411,578.0393,578.0393,580.038,block2,j,1,0.571,,0,12,12,3,1,1,bottom_left,neutral,friendly,,,,,,,,,,,,,,,,
,,,,,252125,m,y,r,n,12,0,2025-04-06_10h17.34.373,VisualSearchFaces,2024.2.4,Win32,60.24096386,,,,,,,,581.0457,581.1489,581.1489,583.1376,block2,j,1,0.459,,0,13,13,14,1,1,bottom_right,friendly,neutral,,,,,,,,,,,,,,,,
,,,,,252125,m,y,r,n,12,0,2025-04-06_10h17.34.373,VisualSearchFaces,2024.2.4,Win32,60.24096386,,,,,,,,584.1423,584.2384,584.2384,586.2387,block2,f,1,0.5487,,0,14,14,32,1,0,top_right,friendly,no_target,,,,,,,,,,,,,,,,
,,,,,252125,m,y,r,n,12,0,2025-04-06_10h17.34.373,VisualSearchFaces,2024.2.4,Win32,60.24096386,,,,,,,,587.242,587.3415,587.3416,589.3378,block2,j,1,0.7117,,0,15,15,2,1,1,top_right,neutral,friendly,,,,,,,,,,,,,,,,
,,,,,252125,m,y,r,n,12,0,2025-04-06_10h17.34.373,VisualSearchFaces,2024.2.4,Win32,60.24096386,,,,,,,,590.3409,590.4396,590.4397,592.4405,block2,j,1,0.5156,,0,16,16,9,1,1,bottom_right,neutral,threatening,,,,,,,,,,,,,,,,
,,,,,252125,m,y,r,n,12,0,2025-04-06_10h17.34.373,VisualSearchFaces,2024.2.4,Win32,60.24096386,,,,,,,,593.453,593.5544,593.5545,595.5567,block2,f,1,1.5272,,0,17,17,31,1,0,top_left,friendly,no_target,,,,,,,,,,,,,,,,
,,,,,252125,m,y,r,n,12,0,2025-04-06_10h17.34.373,VisualSearchFaces,2024.2.4,Win32,60.24096386,,,,,,,,596.5577,596.6577,596.6578,598.667,block2,f,0,0.8981,,0,18,18,17,1,1,top_right,threatening,neutral,,,,,,,,,,,,,,,,
,,,,,252125,m,y,r,n,12,0,2025-04-06_10h17.34.373,VisualSearchFaces,2024.2.4,Win32,60.24096386,,,,,,,,599.6592,599.7552,599.7553,601.7562,block2,f,1,0.4793,,0,19,19,38,1,0,bottom_left,threatening,no_target,,,,,,,,,,,,,,,,
,,,,,252125,m,y,r,n,12,0,2025-04-06_10h17.34.373,VisualSearchFaces,2024.2.4,Win32,60.24096386,,,,,,,,602.7589,602.8708,602.8709,604.8729,block2,f,1,0.4633,,0,20,20,26,1,0,top_left,neutral,no_target,,,,,,,,,,,,,,,,
,,,,,252125,m,y,r,n,12,0,2025-04-06_10h17.34.373,VisualSearchFaces,2024.2.4,Win32,60.24096386,,,,,,,,605.8637,605.9728,605.9728,607.9725,block2,j,1,0.5143,,0,21,21,16,1,1,top_left,threatening,neutral,,,,,,,,,,,,,,,,
,,,,,252125,m,y,r,n,12,0,2025-04-06_10h17.34.373,VisualSearchFaces,2024.2.4,Win32,60.24096386,,,,,,,,608.9653,609.067,609.067,611.0714,block2,f,1,1.4187,,0,22,22,36,1,0,top_left,threatening,no_target,,,,,,,,,,,,,,,,
,,,,,252125,m,y,r,n,12,0,2025-04-06_10h17.34.373,VisualSearchFaces,2024.2.4,Win32,60.24096386,,,,,,,,612.0647,612.1832,612.1833,614.1729,block2,j,1,0.4882,,0,23,23,19,1,1,bottom_right,threatening,neutral,,,,,,,,,,,,,,,,
,,,,,252125,m,y,r,n,12,0,2025-04-06_10h17.34.373,VisualSearchFaces,2024.2.4,Win32,60.24096386,,,,,,,,615.1758,615.2952,615.2952,617.2906,block2,f,1,0.6923,,0,24,24,23,1,0,bottom_left,neutral,no_target,,,,,,,,,,,,,,,,
,,,,,252125,m,y,r,n,12,0,2025-04-06_10h17.34.373,VisualSearchFaces,2024.2.4,Win32,60.24096386,,,,,,,,618.2898,618.3884,618.3886,620.3901,block2,j,1,0.401,,0,25,25,15,1,1,centre,threatening,neutral,,,,,,,,,,,,,,,,
,,,,,252125,m,y,r,n,12,0,2025-04-06_10h17.34.373,VisualSearchFaces,2024.2.4,Win32,60.24096386,,,,,,,,621.3895,621.5042,621.5043,623.5042,block2,j,1,0.4188,,0,26,26,6,1,1,top_left,neutral,threatening,,,,,,,,,,,,,,,,
,,,,,252125,m,y,r,n,12,0,2025-04-06_10h17.34.373,VisualSearchFaces,2024.2.4,Win32,60.24096386,,,,,,,,624.5066,624.6166,624.6166,626.6329,block2,f,1,1.0594,,0,27,27,33,1,0,bottom_left,friendly,no_target,,,,,,,,,,,,,,,,
,,,,,252125,m,y,r,n,12,0,2025-04-06_10h17.34.373,VisualSearchFaces,2024.2.4,Win32,60.24096386,,,,,,,,627.6135,627.7205,627.7205,629.7229,block2,f,1,0.5229,,0,28,28,24,1,0,bottom_right,neutral,no_target,,,,,,,,,,,,,,,,
,,,,,252125,m,y,r,n,12,0,2025-04-06_10h17.34.373,VisualSearchFaces,2024.2.4,Win32,60.24096386,,,,,,,,630.723,630.8497,630.8498,632.8541,block2,f,1,0.4883,,0,29,29,27,1,0,top_right,neutral,no_target,,,,,,,,,,,,,,,,
,,,,,252125,m,y,r,n,12,0,2025-04-06_10h17.34.373,VisualSearchFaces,2024.2.4,Win32,60.24096386,,,,,,,,633.8568,633.9704,633.9704,635.9705,block2,f,1,0.334,,0,30,30,22,1,0,top_right,neutral,no_target,,,,,,,,,,,,,,,,
,,,,,252125,m,y,r,n,12,0,2025-04-06_10h17.34.373,VisualSearchFaces,2024.2.4,Win32,60.24096386,,,,,,,,636.981,637.087,637.087,639.0872,block2,j,1,0.6162,,0,31,31,1,1,1,top_left,neutral,friendly,,,,,,,,,,,,,,,,
,,,,,252125,m,y,r,n,12,0,2025-04-06_10h17.34.373,VisualSearchFaces,2024.2.4,Win32,60.24096386,,,,,,,,640.0909,640.1945,640.1947,642.1872,block2,j,1,0.6123,,0,32,32,4,1,1,bottom_right,neutral,friendly,,,,,,,,,,,,,,,,
,,,,,252125,m,y,r,n,12,0,2025-04-06_10h17.34.373,VisualSearchFaces,2024.2.4,Win32,60.24096386,,,,,,,,643.1885,643.2877,643.2877,645.2758,block2,f,1,0.4883,,0,33,33,28,1,0,bottom_left,neutral,no_target,,,,,,,,,,,,,,,,
,,,,,252125,m,y,r,n,12,0,2025-04-06_10h17.34.373,VisualSearchFaces,2024.2.4,Win32,60.24096386,,,,,,,,646.2813,646.388,646.3881,648.3902,block2,f,1,0.4603,,0,34,34,39,1,0,bottom_right,threatening,no_target,,,,,,,,,,,,,,,,
,,,,,252125,m,y,r,n,12,0,2025-04-06_10h17.34.373,VisualSearchFaces,2024.2.4,Win32,60.24096386,,,,,,,,649.3927,649.4901,649.4902,651.4869,block2,f,1,0.5999,,0,35,35,25,1,0,centre,neutral,no_target,,,,,,,,,,,,,,,,
,,,,,252125,m,y,r,n,12,0,2025-04-06_10h17.34.373,VisualSearchFaces,2024.2.4,Win32,60.24096386,,,,,,,,652.4821,652.587,652.587,654.5872,block2,f,1,0.5559,,0,36,36,37,1,0,top_right,threatening,no_target,,,,,,,,,,,,,,,,
,,,,,252125,m,y,r,n,12,0,2025-04-06_10h17.34.373,VisualSearchFaces,2024.2.4,Win32,60.24096386,,,,,,,,655.5894,655.6881,655.6881,657.6828,block2,f,1,0.5042,,0,37,37,30,1,0,centre,friendly,no_target,,,,,,,,,,,,,,,,
,,,,,252125,m,y,r,n,12,0,2025-04-06_10h17.34.373,VisualSearchFaces,2024.2.4,Win32,60.24096386,,,,,,,,658.6889,658.7878,658.7878,660.8023,block2,j,1,0.8435,,0,38,38,8,1,1,bottom_left,neutral,threatening,,,,,,,,,,,,,,,,
,,,,,252125,m,y,r,n,12,0,2025-04-06_10h17.34.373,VisualSearchFaces,2024.2.4,Win32,60.24096386,,,,,,,,661.7766,661.8756,661.8758,663.8707,block2,j,1,0.4604,,0,39,39,12,1,1,top_right,friendly,neutral,,,,,,,,,,,,,,,,
,,,,,252125,m,y,r,n,12,0,2025-04-06_10h17.34.373,VisualSearchFaces,2024.2.4,Win32,60.24096386,,,,,,,,664.8722,664.976,664.976,666.9705,block2,j,1,0.3959,,1,0,40,18,1,1,bottom_left,threatening,neutral,,,,,,,,,,,,,,,,
,,,,,252125,m,y,r,n,12,0,2025-04-06_10h17.34.373,VisualSearchFaces,2024.2.4,Win32,60.24096386,,,,,,,,667.9732,668.0769,668.077,670.0656,block2,f,1,0.5087,,1,1,41,24,1,0,bottom_right,neutral,no_target,,,,,,,,,,,,,,,,
,,,,,252125,m,y,r,n,12,0,2025-04-06_10h17.34.373,VisualSearchFaces,2024.2.4,Win32,60.24096386,,,,,,,,671.0723,671.1737,671.1737,673.1722,block2,f,1,0.5694,,1,2,42,21,1,0,top_left,neutral,no_target,,,,,,,,,,,,,,,,
,,,,,252125,m,y,r,n,12,0,2025-04-06_10h17.34.373,VisualSearchFaces,2024.2.4,Win32,60.24096386,,,,,,,,674.1655,674.2707,674.2708,676.2705,block2,j,1,0.8186,,1,3,43,6,1,1,top_left,neutral,threatening,,,,,,,,,,,,,,,,
,,,,,252125,m,y,r,n,12,0,2025-04-06_10h17.34.373,VisualSearchFaces,2024.2.4,Win32,60.24096386,,,,,,,,677.2856,677.3918,677.3918,679.387,block2,f,1,0.6966,,1,4,44,31,1,0,top_left,friendly,no_target,,,,,,,,,,,,,,,,
,,,,,252125,m,y,r,n,12,0,2025-04-06_10h17.34.373,VisualSearchFaces,2024.2.4,Win32,60.24096386,,,,,,,,680.389,680.4985,680.4985,682.4908,block2,f,1,0.5101,,1,5,45,29,1,0,bottom_right,neutral,no_target,,,,,,,,,,,,,,,,
,,,,,252125,m,y,r,n,12,0,2025-04-06_10h17.34.373,VisualSearchFaces,2024.2.4,Win32,60.24096386,,,,,,,,683.5057,683.6196,683.6197,685.6143,block2,j,1,0.4464,,1,6,46,4,1,1,bottom_right,neutral,friendly,,,,,,,,,,,,,,,,
,,,,,252125,m,y,r,n,12,0,2025-04-06_10h17.34.373,VisualSearchFaces,2024.2.4,Win32,60.24096386,,,,,,,,686.622,686.7363,686.7364,688.7381,block2,f,1,0.5678,,1,7,47,37,1,0,top_right,threatening,no_target,,,,,,,,,,,,,,,,
,,,,,252125,m,y,r,n,12,0,2025-04-06_10h17.34.373,VisualSearchFaces,2024.2.4,Win32,60.24096386,,,,,,,,689.7304,689.8365,689.8366,691.8258,block2,f,1,0.4859,,1,8,48,28,1,0,bottom_left,neutral,no_target,,,,,,,,,,,,,,,,
,,,,,252125,m,y,r,n,12,0,2025-04-06_10h17.34.373,VisualSearchFaces,2024.2.4,Win32,60.24096386,,,,,,,,692.8406,692.9452,692.9452,694.9378,block2,j,1,0.6945,,1,9,49,11,1,1,top_left,friendly,neutral,,,,,,,,,,,,,,,,
,,,,,252125,m,y,r,n,12,0,2025-04-06_10h17.34.373,VisualSearchFaces,2024.2.4,Win32,60.24096386,,,,,,,,695.9381,696.0373,696.0375,698.0366,block2,f,1,0.5172,,1,10,50,33,1,0,bottom_left,friendly,no_target,,,,,,,,,,,,,,,,
,,,,,252125,m,y,r,n,12,0,2025-04-06_10h17.34.373,VisualSearchFaces,2024.2.4,Win32,60.24096386,,,,,,,,699.0389,699.1532,699.1534,701.153,block2,f,1,0.684,,1,11,51,22,1,0,top_right,neutral,no_target,,,,,,,,,,,,,,,,
,,,,,252125,m,y,r,n,12,0,2025-04-06_10h17.34.373,VisualSearchFaces,2024.2.4,Win32,60.24096386,,,,,,,,702.1554,702.2641,702.2643,704.2617,block2,f,1,0.7274,,1,12,52,30,1,0,centre,friendly,no_target,,,,,,,,,,,,,,,,
,,,,,252125,m,y,r,n,12,0,2025-04-06_10h17.34.373,VisualSearchFaces,2024.2.4,Win32,60.24096386,,,,,,,,705.2571,705.3555,705.3556,707.3508,block2,j,1,0.4309,,1,13,53,14,1,1,bottom_right,friendly,neutral,,,,,,,,,,,,,,,,
,,,,,252125,m,y,r,n,12,0,2025-04-06_10h17.34.373,VisualSearchFaces,2024.2.4,Win32,60.24096386,,,,,,,,708.356,708.4546,708.4547,710.4525,block2,f,1,0.5335,,1,14,54,38,1,0,bottom_left,threatening,no_target,,,,,,,,,,,,,,,,
,,,,,252125,m,y,r,n,12,0,2025-04-06_10h17.34.373,VisualSearchFaces,2024.2.4,Win32,60.24096386,,,,,,,,711.467,711.5696,711.5696,713.5649,block2,f,1,0.4046,,1,15,55,35,1,0,centre,threatening,no_target,,,,,,,,,,,,,,,,
,,,,,252125,m,y,r,n,12,0,2025-04-06_10h17.34.373,VisualSearchFaces,2024.2.4,Win32,60.24096386,,,,,,,,714.5807,714.6797,714.6798,716.6724,block2,f,1,0.5519,,1,16,56,34,1,0,bottom_right,friendly,no_target,,,,,,,,,,,,,,,,
,,,,,252125,m,y,r,n,12,0,2025-04-06_10h17.34.373,VisualSearchFaces,2024.2.4,Win32,60.24096386,,,,,,,,717.6808,717.7876,717.7877,719.7866,block2,j,1,0.5182,,1,17,57,2,1,1,top_right,neutral,friendly,,,,,,,,,,,,,,,,
,,,,,252125,m,y,r,n,12,0,2025-04-06_10h17.34.373,VisualSearchFaces,2024.2.4,Win32,60.24096386,,,,,,,,720.78,720.8863,720.8863,722.8854,block2,f,1,0.4147,,1,18,58,20,1,0,centre,neutral,no_target,,,,,,,,,,,,,,,,
,,,,,252125,m,y,r,n,12,0,2025-04-06_10h17.34.373,VisualSearchFaces,2024.2.4,Win32,60.24096386,,,,,,,,723.8841,723.9832,723.9833,725.9761,block2,j,1,1.5488,,1,19,59,15,1,1,centre,threatening,neutral,,,,,,,,,,,,,,,,
,,,,,252125,m,y,r,n,12,0,2025-04-06_10h17.34.373,VisualSearchFaces,2024.2.4,Win32,60.24096386,,,,,,,,726.9886,727.1025,727.1025,729.0922,block2,j,1,0.4345,,1,20,60,9,1,1,bottom_right,neutral,threatening,,,,,,,,,,,,,,,,
,,,,,252125,m,y,r,n,12,0,2025-04-06_10h17.34.373,VisualSearchFaces,2024.2.4,Win32,60.24096386,,,,,,,,730.1064,730.2149,730.2149,732.2033,block2,j,1,0.3582,,1,21,61,3,1,1,bottom_left,neutral,friendly,,,,,,,,,,,,,,,,
,,,,,252125,m,y,r,n,12,0,2025-04-06_10h17.34.373,VisualSearchFaces,2024.2.4,Win32,60.24096386,,,,,,,,733.2098,733.3083,733.3084,735.309,block2,f,1,0.5148,,1,22,62,36,1,0,top_left,threatening,no_target,,,,,,,,,,,,,,,,
,,,,,252125,m,y,r,n,12,0,2025-04-06_10h17.34.373,VisualSearchFaces,2024.2.4,Win32,60.24096386,,,,,,,,736.3033,736.4069,736.4069,738.4033,block2,j,1,0.6125,,1,23,63,0,1,1,centre,neutral,friendly,,,,,,,,,,,,,,,,
,,,,,252125,m,y,r,n,12,0,2025-04-06_10h17.34.373,VisualSearchFaces,2024.2.4,Win32,60.24096386,,,,,,,,739.4076,739.5192,739.5192,741.5193,block2,f,1,0.4684,,1,24,64,23,1,0,bottom_left,neutral,no_target,,,,,,,,,,,,,,,,
,,,,,252125,m,y,r,n,12,0,2025-04-06_10h17.34.373,VisualSearchFaces,2024.2.4,Win32,60.24096386,,,,,,,,742.525,742.6226,742.6227,744.6193,block2,f,1,0.4289,,1,25,65,26,1,0,top_left,neutral,no_target,,,,,,,,,,,,,,,,
,,,,,252125,m,y,r,n,12,0,2025-04-06_10h17.34.373,VisualSearchFaces,2024.2.4,Win32,60.24096386,,,,,,,,745.6177,745.7249,745.7249,747.7188,block2,j,1,0.4569,,1,26,66,1,1,1,top_left,neutral,friendly,,,,,,,,,,,,,,,,
,,,,,252125,m,y,r,n,12,0,2025-04-06_10h17.34.373,VisualSearchFaces,2024.2.4,Win32,60.24096386,,,,,,,,748.7212,748.8199,748.8199,750.8089,block2,j,1,0.4749,,1,27,67,13,1,1,bottom_left,friendly,neutral,,,,,,,,,,,,,,,,
,,,,,252125,m,y,r,n,12,0,2025-04-06_10h17.34.373,VisualSearchFaces,2024.2.4,Win32,60.24096386,,,,,,,,751.8164,751.9224,751.9224,753.9216,block2,j,1,0.4468,,1,28,68,7,1,1,top_right,neutral,threatening,,,,,,,,,,,,,,,,
,,,,,252125,m,y,r,n,12,0,2025-04-06_10h17.34.373,VisualSearchFaces,2024.2.4,Win32,60.24096386,,,,,,,,754.9209,755.0208,755.0209,757.0188,block2,f,1,0.6311,,1,29,69,39,1,0,bottom_right,threatening,no_target,,,,,,,,,,,,,,,,
,,,,,252125,m,y,r,n,12,0,2025-04-06_10h17.34.373,VisualSearchFaces,2024.2.4,Win32,60.24096386,,,,,,,,758.023,758.1199,758.1201,760.1189,block2,j,1,0.5344,,1,30,70,5,1,1,centre,neutral,threatening,,,,,,,,,,,,,,,,
,,,,,252125,m,y,r,n,12,0,2025-04-06_10h17.34.373,VisualSearchFaces,2024.2.4,Win32,60.24096386,,,,,,,,761.1226,761.221,761.221,763.2186,block2,j,1,0.6834,,1,31,71,19,1,1,bottom_right,threatening,neutral,,,,,,,,,,,,,,,,
,,,,,252125,m,y,r,n,12,0,2025-04-06_10h17.34.373,VisualSearchFaces,2024.2.4,Win32,60.24096386,,,,,,,,764.2225,764.321,764.3211,766.3306,block2,f,1,0.8479,,1,32,72,27,1,0,top_right,neutral,no_target,,,,,,,,,,,,,,,,
,,,,,252125,m,y,r,n,12,0,2025-04-06_10h17.34.373,VisualSearchFaces,2024.2.4,Win32,60.24096386,,,,,,,,767.3214,767.4318,767.432,769.4282,block2,j,1,0.4518,,1,33,73,17,1,1,top_right,threatening,neutral,,,,,,,,,,,,,,,,
,,,,,252125,m,y,r,n,12,0,2025-04-06_10h17.34.373,VisualSearchFaces,2024.2.4,Win32,60.24096386,,,,,,,,770.4496,770.5519,770.552,772.5526,block2,j,1,0.484,,1,34,74,16,1,1,top_left,threatening,neutral,,,,,,,,,,,,,,,,
,,,,,252125,m,y,r,n,12,0,2025-04-06_10h17.34.373,VisualSearchFaces,2024.2.4,Win32,60.24096386,,,,,,,,773.5467,773.6517,773.6518,775.6518,block2,f,1,0.6088,,1,35,75,25,1,0,centre,neutral,no_target,,,,,,,,,,,,,,,,
,,,,,252125,m,y,r,n,12,0,2025-04-06_10h17.34.373,VisualSearchFaces,2024.2.4,Win32,60.24096386,,,,,,,,776.6542,776.7688,776.7688,778.7684,block2,j,1,0.4764,,1,36,76,10,1,1,centre,friendly,neutral,,,,,,,,,,,,,,,,
,,,,,252125,m,y,r,n,12,0,2025-04-06_10h17.34.373,VisualSearchFaces,2024.2.4,Win32,60.24096386,,,,,,,,779.7715,779.8805,779.8805,781.8704,block2,j,1,0.373,,1,37,77,12,1,1,top_right,friendly,neutral,,,,,,,,,,,,,,,,
,,,,,252125,m,y,r,n,12,0,2025-04-06_10h17.34.373,VisualSearchFaces,2024.2.4,Win32,60.24096386,,,,,,,,782.8818,782.9896,782.9896,784.985,block2,f,1,0.4991,,1,38,78,32,1,0,top_right,friendly,no_target,,,,,,,,,,,,,,,,
,,,,,252125,m,y,r,n,12,0,2025-04-06_10h17.34.373,VisualSearchFaces,2024.2.4,Win32,60.24096386,,,,,,,,785.9816,786.089,786.0891,788.0848,block2,j,1,1.0304,,1,39,79,8,1,1,bottom_left,neutral,threatening,,,,,,,,,,,,,,,,
,,,,,252125,m,y,r,n,12,0,2025-04-06_10h17.34.373,VisualSearchFaces,2024.2.4,Win32,60.24096386,,,843.2102,843.9973,space,0.7574,,844.9895,845.09,845.09,847.0852,block3,f,1,0.4805,,0,0,0,31,1,0,top_left,friendly,no_target,788.0884,843.2038,space,55.0871,,,,,,,,,,,,
,,,,,252125,m,y,r,n,12,0,2025-04-06_10h17.34.373,VisualSearchFaces,2024.2.4,Win32,60.24096386,,,,,,,,848.0867,848.1864,848.1864,850.1845,block3,f,1,0.6297,,0,1,1,26,1,0,top_left,neutral,no_target,,,,,,,,,,,,,,,,
,,,,,252125,m,y,r,n,12,0,2025-04-06_10h17.34.373,VisualSearchFaces,2024.2.4,Win32,60.24096386,,,,,,,,851.1872,851.2847,851.2848,853.2842,block3,f,1,0.4011,,0,2,2,23,1,0,bottom_left,neutral,no_target,,,,,,,,,,,,,,,,
,,,,,252125,m,y,r,n,12,0,2025-04-06_10h17.34.373,VisualSearchFaces,2024.2.4,Win32,60.24096386,,,,,,,,854.2766,854.3844,854.3845,856.3842,block3,f,1,0.4165,,0,3,3,33,1,0,bottom_left,friendly,no_target,,,,,,,,,,,,,,,,
,,,,,252125,m,y,r,n,12,0,2025-04-06_10h17.34.373,VisualSearchFaces,2024.2.4,Win32,60.24096386,,,,,,,,857.3869,857.501,857.5011,859.5012,block3,j,1,0.501,,0,4,4,19,1,1,bottom_right,threatening,neutral,,,,,,,,,,,,,,,,
,,,,,252125,m,y,r,n,12,0,2025-04-06_10h17.34.373,VisualSearchFaces,2024.2.4,Win32,60.24096386,,,,,,,,860.4993,860.6004,860.6005,862.6006,block3,j,1,0.4516,,0,5,5,8,1,1,bottom_left,neutral,threatening,,,,,,,,,,,,,,,,
,,,,,252125,m,y,r,n,12,0,2025-04-06_10h17.34.373,VisualSearchFaces,2024.2.4,Win32,60.24096386,,,,,,,,863.5915,863.6972,863.6972,865.6864,block3,j,1,0.3404,,0,6,6,0,1,1,centre,neutral,friendly,,,,,,,,,,,,,,,,
,,,,,252125,m,y,r,n,12,0,2025-04-06_10h17.34.373,VisualSearchFaces,2024.2.4,Win32,60.24096386,,,,,,,,866.7024,866.8075,866.8075,868.8004,block3,j,1,0.5123,,0,7,7,14,1,1,bottom_right,friendly,neutral,,,,,,,,,,,,,,,,
,,,,,252125,m,y,r,n,12,0,2025-04-06_10h17.34.373,VisualSearchFaces,2024.2.4,Win32,60.24096386,,,,,,,,869.8057,869.9057,869.9057,871.9128,block3,j,1,0.4638,,0,8,8,1,1,1,top_left,neutral,friendly,,,,,,,,,,,,,,,,
,,,,,252125,m,y,r,n,12,0,2025-04-06_10h17.34.373,VisualSearchFaces,2024.2.4,Win32,60.24096386,,,,,,,,872.9058,873.006,873.006,875.0006,block3,j,1,0.4336,,0,9,9,16,1,1,top_left,threatening,neutral,,,,,,,,,,,,,,,,
,,,,,252125,m,y,r,n,12,0,2025-04-06_10h17.34.373,VisualSearchFaces,2024.2.4,Win32,60.24096386,,,,,,,,876.0029,876.1172,876.1173,878.1175,block3,j,1,0.4165,,0,10,10,4,1,1,bottom_right,neutral,friendly,,,,,,,,,,,,,,,,
,,,,,252125,m,y,r,n,12,0,2025-04-06_10h17.34.373,VisualSearchFaces,2024.2.4,Win32,60.24096386,,,,,,,,879.1201,879.2339,879.2339,881.2338,block3,f,1,0.4298,,0,11,11,25,1,0,centre,neutral,no_target,,,,,,,,,,,,,,,,
,,,,,252125,m,y,r,n,12,0,2025-04-06_10h17.34.373,VisualSearchFaces,2024.2.4,Win32,60.24096386,,,,,,,,882.2268,882.3365,882.3365,884.3293,block3,j,1,0.4655,,0,12,12,17,1,1,top_right,threatening,neutral,,,,,,,,,,,,,,,,
,,,,,252125,m,y,r,n,12,0,2025-04-06_10h17.34.373,VisualSearchFaces,2024.2.4,Win32,60.24096386,,,,,,,,885.3317,885.443,885.443,887.4336,block3,f,1,0.5406,,0,13,13,28,1,0,bottom_left,neutral,no_target,,,,,,,,,,,,,,,,
,,,,,252125,m,y,r,n,12,0,2025-04-06_10h17.34.373,VisualSearchFaces,2024.2.4,Win32,60.24096386,,,,,,,,888.4364,888.5352,888.5352,890.5341,block3,f,1,0.4321,,0,14,14,21,1,0,top_left,neutral,no_target,,,,,,,,,,,,,,,,
,,,,,252125,m,y,r,n,12,0,2025-04-06_10h17.34.373,VisualSearchFaces,2024.2.4,Win32,60.24096386,,,,,,,,891.5357,891.6384,891.6385,893.6337,block3,f,1,0.4127,,0,15,15,32,1,0,top_right,friendly,no_target,,,,,,,,,,,,,,,,
,,,,,252125,m,y,r,n,12,0,2025-04-06_10h17.34.373,VisualSearchFaces,2024.2.4,Win32,60.24096386,,,,,,,,894.6351,894.7354,894.7354,896.7338,block3,f,1,0.3657,,0,16,16,36,1,0,top_left,threatening,no_target,,,,,,,,,,,,,,,,
,,,,,252125,m,y,r,n,12,0,2025-04-06_10h17.34.373,VisualSearchFaces,2024.2.4,Win32,60.24096386,,,,,,,,897.7361,897.8504,897.8504,899.8504,block3,j,1,0.4909,,0,17,17,9,1,1,bottom_right,neutral,threatening,,,,,,,,,,,,,,,,
,,,,,252125,m,y,r,n,12,0,2025-04-06_10h17.34.373,VisualSearchFaces,2024.2.4,Win32,60.24096386,,,,,,,,900.8661,900.9794,900.9794,902.9876,block3,j,1,0.4182,,0,18,18,13,1,1,bottom_left,friendly,neutral,,,,,,,,,,,,,,,,
,,,,,252125,m,y,r,n,12,0,2025-04-06_10h17.34.373,VisualSearchFaces,2024.2.4,Win32,60.24096386,,,,,,,,903.9855,904.0837,904.0837,906.0885,block3,j,1,0.4093,,0,19,19,7,1,1,top_right,neutral,threatening,,,,,,,,,,,,,,,,
,,,,,252125,m,y,r,n,12,0,2025-04-06_10h17.34.373,VisualSearchFaces,2024.2.4,Win32,60.24096386,,,,,,,,907.0887,907.1889,907.1889,909.1867,block3,f,1,1.1716,,0,20,20,20,1,0,centre,neutral,no_target,,,,,,,,,,,,,,,,
,,,,,252125,m,y,r,n,12,0,2025-04-06_10h17.34.373,VisualSearchFaces,2024.2.4,Win32,60.24096386,,,,,,,,910.2051,910.3198,910.3199,912.313,block3,,0,,,0,21,21,22,1,0,top_right,neutral,no_target,,,,,,,,,,,,,,,,
,,,,,252125,m,y,r,n,12,0,2025-04-06_10h17.34.373,VisualSearchFaces,2024.2.4,Win32,60.24096386,,,,,,,,913.3169,913.4297,913.4297,915.4303,block3,f,1,0.7173,,0,22,22,29,1,0,bottom_right,neutral,no_target,,,,,,,,,,,,,,,,
,,,,,252125,m,y,r,n,12,0,2025-04-06_10h17.34.373,VisualSearchFaces,2024.2.4,Win32,60.24096386,,,,,,,,916.4329,916.5473,916.5473,918.5468,block3,j,1,1.0007,,0,23,23,18,1,1,bottom_left,threatening,neutral,,,,,,,,,,,,,,,,
,,,,,252125,m,y,r,n,12,0,2025-04-06_10h17.34.373,VisualSearchFaces,2024.2.4,Win32,60.24096386,,,,,,,,919.5514,919.6626,919.6626,921.6628,block3,f,1,0.8503,,0,24,24,37,1,0,top_right,threatening,no_target,,,,,,,,,,,,,,,,
,,,,,252125,m,y,r,n,12,0,2025-04-06_10h17.34.373,VisualSearchFaces,2024.2.4,Win32,60.24096386,,,,,,,,922.6667,922.7665,922.7666,924.7665,block3,j,1,0.5099,,0,25,25,3,1,1,bottom_left,neutral,friendly,,,,,,,,,,,,,,,,
,,,,,252125,m,y,r,n,12,0,2025-04-06_10h17.34.373,VisualSearchFaces,2024.2.4,Win32,60.24096386,,,,,,,,925.7813,925.8833,925.8834,927.8831,block3,j,1,0.5166,,0,26,26,15,1,1,centre,threatening,neutral,,,,,,,,,,,,,,,,
,,,,,252125,m,y,r,n,12,0,2025-04-06_10h17.34.373,VisualSearchFaces,2024.2.4,Win32,60.24096386,,,,,,,,928.8992,929.0026,929.0026,931.0047,block3,j,1,0.4337,,0,27,27,6,1,1,top_left,neutral,threatening,,,,,,,,,,,,,,,,
,,,,,252125,m,y,r,n,12,0,2025-04-06_10h17.34.373,VisualSearchFaces,2024.2.4,Win32,60.24096386,,,,,,,,932.0034,932.1306,932.1308,934.1337,block3,f,1,0.7047,,0,28,28,30,1,0,centre,friendly,no_target,,,,,,,,,,,,,,,,
,,,,,252125,m,y,r,n,12,0,2025-04-06_10h17.34.373,VisualSearchFaces,2024.2.4,Win32,60.24096386,,,,,,,,935.1529,935.2637,935.2638,937.2569,block3,j,1,0.478,,0,29,29,10,1,1,centre,friendly,neutral,,,,,,,,,,,,,,,,
,,,,,252125,m,y,r,n,12,0,2025-04-06_10h17.34.373,VisualSearchFaces,2024.2.4,Win32,60.24096386,,,,,,,,938.2676,938.3801,938.3801,940.382,block3,f,1,1.1548,,0,30,30,34,1,0,bottom_right,friendly,no_target,,,,,,,,,,,,,,,,
,,,,,252125,m,y,r,n,12,0,2025-04-06_10h17.34.373,VisualSearchFaces,2024.2.4,Win32,60.24096386,,,,,,,,941.3853,941.4859,941.4859,943.4737,block3,f,1,0.7284,,0,31,31,24,1,0,bottom_right,neutral,no_target,,,,,,,,,,,,,,,,
,,,,,252125,m,y,r,n,12,0,2025-04-06_10h17.34.373,VisualSearchFaces,2024.2.4,Win32,60.24096386,,,,,,,,944.4849,944.6019,944.6019,946.5994,block3,j,0,0.7433,,0,32,32,38,1,0,bottom_left,threatening,no_target,,,,,,,,,,,,,,,,
,,,,,252125,m,y,r,n,12,0,2025-04-06_10h17.34.373,VisualSearchFaces,2024.2.4,Win32,60.24096386,,,,,,,,947.6059,947.7179,947.718,949.7178,block3,f,1,0.5154,,0,33,33,27,1,0,top_right,neutral,no_target,,,,,,,,,,,,,,,,
,,,,,252125,m,y,r,n,12,0,2025-04-06_10h17.34.373,VisualSearchFaces,2024.2.4,Win32,60.24096386,,,,,,,,950.7182,950.8182,950.8183,952.8176,block3,j,1,0.7154,,0,34,34,12,1,1,top_right,friendly,neutral,,,,,,,,,,,,,,,,
,,,,,252125,m,y,r,n,12,0,2025-04-06_10h17.34.373,VisualSearchFaces,2024.2.4,Win32,60.24096386,,,,,,,,953.8208,953.9282,953.9282,955.9197,block3,j,1,0.4699,,0,35,35,11,1,1,top_left,friendly,neutral,,,,,,,,,,,,,,,,
,,,,,252125,m,y,r,n,12,0,2025-04-06_10h17.34.373,VisualSearchFaces,2024.2.4,Win32,60.24096386,,,,,,,,956.9272,957.0459,957.046,959.0399,block3,f,1,0.5357,,0,36,36,39,1,0,bottom_right,threatening,no_target,,,,,,,,,,,,,,,,
,,,,,252125,m,y,r,n,12,0,2025-04-06_10h17.34.373,VisualSearchFaces,2024.2.4,Win32,60.24096386,,,,,,,,960.0385,960.1435,960.1435,962.1344,block3,j,1,0.5028,,0,37,37,5,1,1,centre,neutral,threatening,,,,,,,,,,,,,,,,
,,,,,252125,m,y,r,n,12,0,2025-04-06_10h17.34.373,VisualSearchFaces,2024.2.4,Win32,60.24096386,,,,,,,,963.1486,963.2633,963.2635,965.2659,block3,f,1,0.5257,,0,38,38,35,1,0,centre,threatening,no_target,,,,,,,,,,,,,,,,
,,,,,252125,m,y,r,n,12,0,2025-04-06_10h17.34.373,VisualSearchFaces,2024.2.4,Win32,60.24096386,,,,,,,,966.2608,966.3665,966.3666,968.3569,block3,j,1,0.7275,,0,39,39,2,1,1,top_right,neutral,friendly,,,,,,,,,,,,,,,,
,,,,,252125,m,y,r,n,12,0,2025-04-06_10h17.34.373,VisualSearchFaces,2024.2.4,Win32,60.24096386,,,,,,,,969.3593,969.4604,969.4604,971.4625,block3,j,1,0.9911,,1,0,40,19,1,1,bottom_right,threatening,neutral,,,,,,,,,,,,,,,,
,,,,,252125,m,y,r,n,12,0,2025-04-06_10h17.34.373,VisualSearchFaces,2024.2.4,Win32,60.24096386,,,,,,,,972.4669,972.566,972.566,974.5657,block3,j,1,0.5442,,1,1,41,2,1,1,top_right,neutral,friendly,,,,,,,,,,,,,,,,
,,,,,252125,m,y,r,n,12,0,2025-04-06_10h17.34.373,VisualSearchFaces,2024.2.4,Win32,60.24096386,,,,,,,,975.5822,975.6826,975.6827,977.6829,block3,f,1,0.4339,,1,2,42,39,1,0,bottom_right,threatening,no_target,,,,,,,,,,,,,,,,
,,,,,252125,m,y,r,n,12,0,2025-04-06_10h17.34.373,VisualSearchFaces,2024.2.4,Win32,60.24096386,,,,,,,,978.68,978.7784,978.7785,980.783,block3,f,1,0.5937,,1,3,43,20,1,0,centre,neutral,no_target,,,,,,,,,,,,,,,,
,,,,,252125,m,y,r,n,12,0,2025-04-06_10h17.34.373,VisualSearchFaces,2024.2.4,Win32,60.24096386,,,,,,,,981.7847,981.8851,981.8852,983.882,block3,j,1,0.4185,,1,4,44,5,1,1,centre,neutral,threatening,,,,,,,,,,,,,,,,
,,,,,252125,m,y,r,n,12,0,2025-04-06_10h17.34.373,VisualSearchFaces,2024.2.4,Win32,60.24096386,,,,,,,,984.8844,984.9957,984.9957,986.9951,block3,j,1,0.6168,,1,5,45,13,1,1,bottom_left,friendly,neutral,,,,,,,,,,,,,,,,
,,,,,252125,m,y,r,n,12,0,2025-04-06_10h17.34.373,VisualSearchFaces,2024.2.4,Win32,60.24096386,,,,,,,,987.9993,988.1014,988.1015,990.1004,block3,j,1,0.5395,,1,6,46,14,1,1,bottom_right,friendly,neutral,,,,,,,,,,,,,,,,
,,,,,252125,m,y,r,n,12,0,2025-04-06_10h17.34.373,VisualSearchFaces,2024.2.4,Win32,60.24096386,,,,,,,,991.1039,991.2073,991.2073,993.1969,block3,j,1,0.4783,,1,7,47,9,1,1,bottom_right,neutral,threatening,,,,,,,,,,,,,,,,
,,,,,252125,m,y,r,n,12,0,2025-04-06_10h17.34.373,VisualSearchFaces,2024.2.4,Win32,60.24096386,,,,,,,,994.2008,994.3106,994.3106,996.2992,block3,j,1,0.4111,,1,8,48,15,1,1,centre,threatening,neutral,,,,,,,,,,,,,,,,
,,,,,252125,m,y,r,n,12,0,2025-04-06_10h17.34.373,VisualSearchFaces,2024.2.4,Win32,60.24096386,,,,,,,,997.3096,997.4078,997.4079,999.407,block3,j,1,0.491,,1,9,49,1,1,1,top_left,neutral,friendly,,,,,,,,,,,,,,,,
,,,,,252125,m,y,r,n,12,0,2025-04-06_10h17.34.373,VisualSearchFaces,2024.2.4,Win32,60.24096386,,,,,,,,1000.4142,1000.5194,1000.5195,1002.5152,block3,j,1,0.4947,,1,10,50,16,1,1,top_left,threatening,neutral,,,,,,,,,,,,,,,,
,,,,,252125,m,y,r,n,12,0,2025-04-06_10h17.34.373,VisualSearchFaces,2024.2.4,Win32,60.24096386,,,,,,,,1003.5179,1003.6322,1003.6323,1005.6346,block3,f,1,0.6398,,1,11,51,24,1,0,bottom_right,neutral,no_target,,,,,,,,,,,,,,,,
,,,,,252125,m,y,r,n,12,0,2025-04-06_10h17.34.373,VisualSearchFaces,2024.2.4,Win32,60.24096386,,,,,,,,1006.6354,1006.7356,1006.7357,1008.7274,block3,f,1,0.7492,,1,12,52,31,1,0,top_left,friendly,no_target,,,,,,,,,,,,,,,,
,,,,,252125,m,y,r,n,12,0,2025-04-06_10h17.34.373,VisualSearchFaces,2024.2.4,Win32,60.24096386,,,,,,,,1009.7356,1009.8338,1009.8339,1011.8321,block3,j,1,0.5533,,1,13,53,10,1,1,centre,friendly,neutral,,,,,,,,,,,,,,,,
,,,,,252125,m,y,r,n,12,0,2025-04-06_10h17.34.373,VisualSearchFaces,2024.2.4,Win32,60.24096386,,,,,,,,1012.8266,1012.9381,1012.9381,1014.9328,block3,j,1,0.4123,,1,14,54,6,1,1,top_left,neutral,threatening,,,,,,,,,,,,,,,,
,,,,,252125,m,y,r,n,12,0,2025-04-06_10h17.34.373,VisualSearchFaces,2024.2.4,Win32,60.24096386,,,,,,,,1015.9342,1016.0376,1016.0376,1018.0325,block3,j,1,0.5887,,1,15,55,0,1,1,centre,neutral,friendly,,,,,,,,,,,,,,,,
,,,,,252125,m,y,r,n,12,0,2025-04-06_10h17.34.373,VisualSearchFaces,2024.2.4,Win32,60.24096386,,,,,,,,1019.0349,1019.1445,1019.1446,1021.1324,block3,j,1,0.6027,,1,16,56,17,1,1,top_right,threatening,neutral,,,,,,,,,,,,,,,,
,,,,,252125,m,y,r,n,12,0,2025-04-06_10h17.34.373,VisualSearchFaces,2024.2.4,Win32,60.24096386,,,,,,,,1022.1512,1022.2502,1022.2502,1024.2468,block3,f,1,0.6496,,1,17,57,23,1,0,bottom_left,neutral,no_target,,,,,,,,,,,,,,,,
,,,,,252125,m,y,r,n,12,0,2025-04-06_10h17.34.373,VisualSearchFaces,2024.2.4,Win32,60.24096386,,,,,,,,1025.2509,1025.3506,1025.3507,1027.3419,block3,j,1,0.3902,,1,18,58,12,1,1,top_right,friendly,neutral,,,,,,,,,,,,,,,,
,,,,,252125,m,y,r,n,12,0,2025-04-06_10h17.34.373,VisualSearchFaces,2024.2.4,Win32,60.24096386,,,,,,,,1028.3506,1028.4566,1028.4568,1030.448,block3,j,1,0.3947,,1,19,59,11,1,1,top_left,friendly,neutral,,,,,,,,,,,,,,,,
,,,,,252125,m,y,r,n,12,0,2025-04-06_10h17.34.373,VisualSearchFaces,2024.2.4,Win32,60.24096386,,,,,,,,1031.4513,1031.5618,1031.5619,1033.5618,block3,f,1,0.5347,,1,20,60,26,1,0,top_left,neutral,no_target,,,,,,,,,,,,,,,,
,,,,,252125,m,y,r,n,12,0,2025-04-06_10h17.34.373,VisualSearchFaces,2024.2.4,Win32,60.24096386,,,,,,,,1034.5671,1034.6815,1034.6816,1036.6819,block3,j,1,0.5508,,1,21,61,18,1,1,bottom_left,threatening,neutral,,,,,,,,,,,,,,,,
,,,,,252125,m,y,r,n,12,0,2025-04-06_10h17.34.373,VisualSearchFaces,2024.2.4,Win32,60.24096386,,,,,,,,1037.6829,1037.782,1037.7821,1039.7819,block3,f,1,0.4549,,1,22,62,37,1,0,top_right,threatening,no_target,,,,,,,,,,,,,,,,
,,,,,252125,m,y,r,n,12,0,2025-04-06_10h17.34.373,VisualSearchFaces,2024.2.4,Win32,60.24096386,,,,,,,,1040.79,1040.8997,1040.8997,1042.8965,block3,f,1,0.5159,,1,23,63,32,1,0,top_right,friendly,no_target,,,,,,,,,,,,,,,,
,,,,,252125,m,y,r,n,12,0,2025-04-06_10h17.34.373,VisualSearchFaces,2024.2.4,Win32,60.24096386,,,,,,,,1043.9036,1044.0044,1044.0045,1045.9993,block3,f,1,0.4588,,1,24,64,36,1,0,top_left,threatening,no_target,,,,,,,,,,,,,,,,
,,,,,252125,m,y,r,n,12,0,2025-04-06_10h17.34.373,VisualSearchFaces,2024.2.4,Win32,60.24096386,,,,,,,,1047.002,1047.1055,1047.1055,1049.0935,block3,f,1,0.5514,,1,25,65,34,1,0,bottom_right,friendly,no_target,,,,,,,,,,,,,,,,
,,,,,252125,m,y,r,n,12,0,2025-04-06_10h17.34.373,VisualSearchFaces,2024.2.4,Win32,60.24096386,,,,,,,,1050.115,1050.221,1050.221,1052.2181,block3,j,1,0.5627,,1,26,66,3,1,1,bottom_left,neutral,friendly,,,,,,,,,,,,,,,,
,,,,,252125,m,y,r,n,12,0,2025-04-06_10h17.34.373,VisualSearchFaces,2024.2.4,Win32,60.24096386,,,,,,,,1053.2186,1053.3312,1053.3313,1055.3315,block3,f,1,0.3913,,1,27,67,35,1,0,centre,threatening,no_target,,,,,,,,,,,,,,,,
,,,,,252125,m,y,r,n,12,0,2025-04-06_10h17.34.373,VisualSearchFaces,2024.2.4,Win32,60.24096386,,,,,,,,1056.3251,1056.4337,1056.4338,1058.4314,block3,f,1,0.5049,,1,28,68,22,1,0,top_right,neutral,no_target,,,,,,,,,,,,,,,,
,,,,,252125,m,y,r,n,12,0,2025-04-06_10h17.34.373,VisualSearchFaces,2024.2.4,Win32,60.24096386,,,,,,,,1059.4343,1059.5419,1059.542,1061.5317,block3,f,1,0.4559,,1,29,69,27,1,0,top_right,neutral,no_target,,,,,,,,,,,,,,,,
,,,,,252125,m,y,r,n,12,0,2025-04-06_10h17.34.373,VisualSearchFaces,2024.2.4,Win32,60.24096386,,,,,,,,1062.5361,1062.633,1062.6331,1064.631,block3,f,0,0.8925,,1,30,70,4,1,1,bottom_right,neutral,friendly,,,,,,,,,,,,,,,,
,,,,,252125,m,y,r,n,12,0,2025-04-06_10h17.34.373,VisualSearchFaces,2024.2.4,Win32,60.24096386,,,,,,,,1065.6337,1065.748,1065.7481,1067.7458,block3,f,1,0.4626,,1,31,71,25,1,0,centre,neutral,no_target,,,,,,,,,,,,,,,,
,,,,,252125,m,y,r,n,12,0,2025-04-06_10h17.34.373,VisualSearchFaces,2024.2.4,Win32,60.24096386,,,,,,,,1068.7486,1068.8483,1068.8483,1070.8423,block3,f,1,0.4836,,1,32,72,33,1,0,bottom_left,friendly,no_target,,,,,,,,,,,,,,,,
,,,,,252125,m,y,r,n,12,0,2025-04-06_10h17.34.373,VisualSearchFaces,2024.2.4,Win32,60.24096386,,,,,,,,1071.8474,1071.9602,1071.9602,1073.9644,block3,j,1,0.4222,,1,33,73,7,1,1,top_right,neutral,threatening,,,,,,,,,,,,,,,,
,,,,,252125,m,y,r,n,12,0,2025-04-06_10h17.34.373,VisualSearchFaces,2024.2.4,Win32,60.24096386,,,,,,,,1074.9628,1075.0736,1075.0736,1077.073,block3,j,1,0.3955,,1,34,74,8,1,1,bottom_left,neutral,threatening,,,,,,,,,,,,,,,,
,,,,,252125,m,y,r,n,12,0,2025-04-06_10h17.34.373,VisualSearchFaces,2024.2.4,Win32,60.24096386,,,,,,,,1078.0755,1078.1813,1078.1814,1080.1809,block3,f,1,0.9238,,1,35,75,21,1,0,top_left,neutral,no_target,,,,,,,,,,,,,,,,
,,,,,252125,m,y,r,n,12,0,2025-04-06_10h17.34.373,VisualSearchFaces,2024.2.4,Win32,60.24096386,,,,,,,,1081.1749,1081.2824,1081.2825,1083.2822,block3,f,1,0.5188,,1,36,76,29,1,0,bottom_right,neutral,no_target,,,,,,,,,,,,,,,,
,,,,,252125,m,y,r,n,12,0,2025-04-06_10h17.34.373,VisualSearchFaces,2024.2.4,Win32,60.24096386,,,,,,,,1084.2795,1084.3775,1084.3776,1086.3768,block3,f,1,0.4668,,1,37,77,28,1,0,bottom_left,neutral,no_target,,,,,,,,,,,,,,,,
,,,,,252125,m,y,r,n,12,0,2025-04-06_10h17.34.373,VisualSearchFaces,2024.2.4,Win32,60.24096386,,,,,,,,1087.3804,1087.4809,1087.481,1089.4811,block3,f,1,0.4807,,1,38,78,38,1,0,bottom_left,threatening,no_target,,,,,,,,,,,,,,,,
,,,,,252125,m,y,r,n,12,0,2025-04-06_10h17.34.373,VisualSearchFaces,2024.2.4,Win32,60.24096386,,,,,,,,1090.475,1090.593,1090.593,1092.5937,block3,f,1,0.7187,,1,39,79,30,1,0,centre,friendly,no_target,,,,,,,,,,,,,,,,
,,,,,252125,m,y,r,n,12,0,2025-04-06_10h17.34.373,VisualSearchFaces,2024.2.4,Win32,60.24096386,,,1093.8348,1094.3504,space,0.4886,,1095.3511,1095.4639,1095.464,1097.4677,block4,j,1,0.4513,,0,0,0,7,1,1,top_right,neutral,threatening,1092.5974,1093.8307,space,1.2064,,,,,,,,,,,,
,,,,,252125,m,y,r,n,12,0,2025-04-06_10h17.34.373,VisualSearchFaces,2024.2.4,Win32,60.24096386,,,,,,,,1098.4672,1098.5661,1098.5661,1100.5596,block4,j,1,0.4307,,0,1,1,15,1,1,centre,threatening,neutral,,,,,,,,,,,,,,,,
,,,,,252125,m,y,r,n,12,0,2025-04-06_10h17.34.373,VisualSearchFaces,2024.2.4,Win32,60.24096386,,,,,,,,1101.5798,1101.6933,1101.6934,1103.6946,block4,f,1,1.1342,,0,2,2,28,1,0,bottom_left,neutral,no_target,,,,,,,,,,,,,,,,
,,,,,252125,m,y,r,n,12,0,2025-04-06_10h17.34.373,VisualSearchFaces,2024.2.4,Win32,60.24096386,,,,,,,,1104.6989,1104.8108,1104.8109,1106.8111,block4,f,1,0.4998,,0,3,3,25,1,0,centre,neutral,no_target,,,,,,,,,,,,,,,,
,,,,,252125,m,y,r,n,12,0,2025-04-06_10h17.34.373,VisualSearchFaces,2024.2.4,Win32,60.24096386,,,,,,,,1107.8126,1107.9139,1107.914,1109.9268,block4,f,1,0.7965,,0,4,4,34,1,0,bottom_right,friendly,no_target,,,,,,,,,,,,,,,,
,,,,,252125,m,y,r,n,12,0,2025-04-06_10h17.34.373,VisualSearchFaces,2024.2.4,Win32,60.24096386,,,,,,,,1110.906,1111.0036,1111.0036,1112.9972,block4,j,1,0.5613,,0,5,5,6,1,1,top_left,neutral,threatening,,,,,,,,,,,,,,,,
,,,,,252125,m,y,r,n,12,0,2025-04-06_10h17.34.373,VisualSearchFaces,2024.2.4,Win32,60.24096386,,,,,,,,1113.9994,1114.1017,1114.1018,1116.0971,block4,j,1,0.3954,,0,6,6,4,1,1,bottom_right,neutral,friendly,,,,,,,,,,,,,,,,
,,,,,252125,m,y,r,n,12,0,2025-04-06_10h17.34.373,VisualSearchFaces,2024.2.4,Win32,60.24096386,,,,,,,,1117.0994,1117.2095,1117.2096,1119.2136,block4,j,1,0.4948,,0,7,7,19,1,1,bottom_right,threatening,neutral,,,,,,,,,,,,,,,,
,,,,,252125,m,y,r,n,12,0,2025-04-06_10h17.34.373,VisualSearchFaces,2024.2.4,Win32,60.24096386,,,,,,,,1120.2043,1120.3137,1120.3137,1122.3077,block4,j,1,0.3624,,0,8,8,2,1,1,top_right,neutral,friendly,,,,,,,,,,,,,,,,
,,,,,252125,m,y,r,n,12,0,2025-04-06_10h17.34.373,VisualSearchFaces,2024.2.4,Win32,60.24096386,,,,,,,,1123.3163,1123.4198,1123.4198,1125.4096,block4,f,1,0.4729,,0,9,9,31,1,0,top_left,friendly,no_target,,,,,,,,,,,,,,,,
,,,,,252125,m,y,r,n,12,0,2025-04-06_10h17.34.373,VisualSearchFaces,2024.2.4,Win32,60.24096386,,,,,,,,1126.4176,1126.5306,1126.5307,1128.5206,block4,j,1,0.4681,,0,10,10,13,1,1,bottom_left,friendly,neutral,,,,,,,,,,,,,,,,
,,,,,252125,m,y,r,n,12,0,2025-04-06_10h17.34.373,VisualSearchFaces,2024.2.4,Win32,60.24096386,,,,,,,,1129.5327,1129.6358,1129.636,1131.6331,block4,f,1,0.5116,,0,11,11,22,1,0,top_right,neutral,no_target,,,,,,,,,,,,,,,,
,,,,,252125,m,y,r,n,12,0,2025-04-06_10h17.34.373,VisualSearchFaces,2024.2.4,Win32,60.24096386,,,,,,,,1132.6457,1132.751,1132.751,1134.7508,block4,j,1,0.454,,0,12,12,17,1,1,top_right,threatening,neutral,,,,,,,,,,,,,,,,
,,,,,252125,m,y,r,n,12,0,2025-04-06_10h17.34.373,VisualSearchFaces,2024.2.4,Win32,60.24096386,,,,,,,,1135.7513,1135.8476,1135.8477,1137.8469,block4,f,1,0.5354,,0,13,13,30,1,0,centre,friendly,no_target,,,,,,,,,,,,,,,,
,,,,,252125,m,y,r,n,12,0,2025-04-06_10h17.34.373,VisualSearchFaces,2024.2.4,Win32,60.24096386,,,,,,,,1138.8503,1138.949,1138.9491,1140.948,block4,f,1,0.4476,,0,14,14,32,1,0,top_right,friendly,no_target,,,,,,,,,,,,,,,,
,,,,,252125,m,y,r,n,12,0,2025-04-06_10h17.34.373,VisualSearchFaces,2024.2.4,Win32,60.24096386,,,,,,,,1141.9503,1142.0602,1142.0603,1144.0584,block4,f,1,1.4888,,0,15,15,21,1,0,top_left,neutral,no_target,,,,,,,,,,,,,,,,
,,,,,252125,m,y,r,n,12,0,2025-04-06_10h17.34.373,VisualSearchFaces,2024.2.4,Win32,60.24096386,,,,,,,,1145.0594,1145.1764,1145.1764,1147.1698,block4,f,1,0.6065,,0,16,16,24,1,0,bottom_right,neutral,no_target,,,,,,,,,,,,,,,,
,,,,,252125,m,y,r,n,12,0,2025-04-06_10h17.34.373,VisualSearchFaces,2024.2.4,Win32,60.24096386,,,,,,,,1148.1789,1148.2801,1148.2802,1150.2812,block4,j,1,0.6443,,0,17,17,10,1,1,centre,friendly,neutral,,,,,,,,,,,,,,,,
,,,,,252125,m,y,r,n,12,0,2025-04-06_10h17.34.373,VisualSearchFaces,2024.2.4,Win32,60.24096386,,,,,,,,1151.2805,1151.3896,1151.3897,1153.3816,block4,f,1,0.6253,,0,18,18,27,1,0,top_right,neutral,no_target,,,,,,,,,,,,,,,,
,,,,,252125,m,y,r,n,12,0,2025-04-06_10h17.34.373,VisualSearchFaces,2024.2.4,Win32,60.24096386,,,,,,,,1154.3851,1154.4839,1154.484,1156.4827,block4,j,1,0.6139,,0,19,19,8,1,1,bottom_left,neutral,threatening,,,,,,,,,,,,,,,,
,,,,,252125,m,y,r,n,12,0,2025-04-06_10h17.34.373,VisualSearchFaces,2024.2.4,Win32,60.24096386,,,,,,,,1157.4856,1157.5858,1157.5858,1159.5799,block4,j,1,0.5611,,0,20,20,16,1,1,top_left,threatening,neutral,,,,,,,,,,,,,,,,
,,,,,252125,m,y,r,n,12,0,2025-04-06_10h17.34.373,VisualSearchFaces,2024.2.4,Win32,60.24096386,,,,,,,,1160.5778,1160.6798,1160.6798,1162.6682,block4,j,1,0.3997,,0,21,21,11,1,1,top_left,friendly,neutral,,,,,,,,,,,,,,,,
,,,,,252125,m,y,r,n,12,0,2025-04-06_10h17.34.373,VisualSearchFaces,2024.2.4,Win32,60.24096386,,,,,,,,1163.6756,1163.7749,1163.7749,1165.7766,block4,j,1,0.4023,,0,22,22,1,1,1,top_left,neutral,friendly,,,,,,,,,,,,,,,,
,,,,,252125,m,y,r,n,12,0,2025-04-06_10h17.34.373,VisualSearchFaces,2024.2.4,Win32,60.24096386,,,,,,,,1166.7679,1166.88,1166.88,1168.8797,block4,f,1,0.5154,,0,23,23,29,1,0,bottom_right,neutral,no_target,,,,,,,,,,,,,,,,
,,,,,252125,m,y,r,n,12,0,2025-04-06_10h17.34.373,VisualSearchFaces,2024.2.4,Win32,60.24096386,,,,,,,,1169.8835,1169.9815,1169.9815,1171.9803,block4,j,1,0.6697,,0,24,24,12,1,1,top_right,friendly,neutral,,,,,,,,,,,,,,,,
,,,,,252125,m,y,r,n,12,0,2025-04-06_10h17.34.373,VisualSearchFaces,2024.2.4,Win32,60.24096386,,,,,,,,1172.9856,1173.1092,1173.1092,1175.0985,block4,f,1,0.5869,,0,25,25,39,1,0,bottom_right,threatening,no_target,,,,,,,,,,,,,,,,
,,,,,252125,m,y,r,n,12,0,2025-04-06_10h17.34.373,VisualSearchFaces,2024.2.4,Win32,60.24096386,,,,,,,,1176.1117,1176.2196,1176.2197,1178.2193,block4,j,1,0.4438,,0,26,26,0,1,1,centre,neutral,friendly,,,,,,,,,,,,,,,,
,,,,,252125,m,y,r,n,12,0,2025-04-06_10h17.34.373,VisualSearchFaces,2024.2.4,Win32,60.24096386,,,,,,,,1179.2275,1179.3366,1179.3366,1181.3297,block4,j,1,0.4871,,0,27,27,9,1,1,bottom_right,neutral,threatening,,,,,,,,,,,,,,,,
,,,,,252125,m,y,r,n,12,0,2025-04-06_10h17.34.373,VisualSearchFaces,2024.2.4,Win32,60.24096386,,,,,,,,1182.3405,1182.4433,1182.4434,1184.4441,block4,f,1,0.8197,,0,28,28,20,1,0,centre,neutral,no_target,,,,,,,,,,,,,,,,
,,,,,252125,m,y,r,n,12,0,2025-04-06_10h17.34.373,VisualSearchFaces,2024.2.4,Win32,60.24096386,,,,,,,,1185.4417,1185.5463,1185.5464,1187.536,block4,j,0,0.5136,,0,29,29,33,1,0,bottom_left,friendly,no_target,,,,,,,,,,,,,,,,
,,,,,252125,m,y,r,n,12,0,2025-04-06_10h17.34.373,VisualSearchFaces,2024.2.4,Win32,60.24096386,,,,,,,,1188.5518,1188.6626,1188.6626,1190.6585,block4,j,1,0.4519,,0,30,30,14,1,1,bottom_right,friendly,neutral,,,,,,,,,,,,,,,,
,,,,,252125,m,y,r,n,12,0,2025-04-06_10h17.34.373,VisualSearchFaces,2024.2.4,Win32,60.24096386,,,,,,,,1191.6572,1191.7541,1191.7542,1193.7467,block4,f,1,0.5902,,0,31,31,26,1,0,top_left,neutral,no_target,,,,,,,,,,,,,,,,
,,,,,252125,m,y,r,n,12,0,2025-04-06_10h17.34.373,VisualSearchFaces,2024.2.4,Win32,60.24096386,,,,,,,,1194.7607,1194.8773,1194.8773,1196.8793,block4,f,1,0.4203,,0,32,32,23,1,0,bottom_left,neutral,no_target,,,,,,,,,,,,,,,,
,,,,,252125,m,y,r,n,12,0,2025-04-06_10h17.34.373,VisualSearchFaces,2024.2.4,Win32,60.24096386,,,,,,,,1197.8951,1197.9987,1197.9988,1199.9878,block4,f,1,1.9001,,0,33,33,35,1,0,centre,threatening,no_target,,,,,,,,,,,,,,,,
,,,,,252125,m,y,r,n,12,0,2025-04-06_10h17.34.373,VisualSearchFaces,2024.2.4,Win32,60.24096386,,,,,,,,1200.999,1201.1099,1201.11,1203.0977,block4,j,1,0.4793,,0,34,34,5,1,1,centre,neutral,threatening,,,,,,,,,,,,,,,,
,,,,,252125,m,y,r,n,12,0,2025-04-06_10h17.34.373,VisualSearchFaces,2024.2.4,Win32,60.24096386,,,,,,,,1204.1141,1204.2183,1204.2183,1206.2245,block4,f,1,1.0911,,0,35,35,36,1,0,top_left,threatening,no_target,,,,,,,,,,,,,,,,
,,,,,252125,m,y,r,n,12,0,2025-04-06_10h17.34.373,VisualSearchFaces,2024.2.4,Win32,60.24096386,,,,,,,,1207.2204,1207.3289,1207.329,1209.329,block4,j,1,0.3848,,0,36,36,18,1,1,bottom_left,threatening,neutral,,,,,,,,,,,,,,,,
,,,,,252125,m,y,r,n,12,0,2025-04-06_10h17.34.373,VisualSearchFaces,2024.2.4,Win32,60.24096386,,,,,,,,1210.332,1210.435,1210.4351,1212.4295,block4,f,1,0.6002,,0,37,37,38,1,0,bottom_left,threatening,no_target,,,,,,,,,,,,,,,,
,,,,,252125,m,y,r,n,12,0,2025-04-06_10h17.34.373,VisualSearchFaces,2024.2.4,Win32,60.24096386,,,,,,,,1213.4348,1213.5457,1213.5457,1215.5456,block4,f,1,0.598,,0,38,38,37,1,0,top_right,threatening,no_target,,,,,,,,,,,,,,,,
,,,,,252125,m,y,r,n,12,0,2025-04-06_10h17.34.373,VisualSearchFaces,2024.2.4,Win32,60.24096386,,,,,,,,1216.5503,1216.647,1216.647,1218.6454,block4,j,1,0.4935,,0,39,39,3,1,1,bottom_left,neutral,friendly,,,,,,,,,,,,,,,,
,,,,,252125,m,y,r,n,12,0,2025-04-06_10h17.34.373,VisualSearchFaces,2024.2.4,Win32,60.24096386,,,,,,,,1219.652,1219.7532,1219.7533,1221.7459,block4,j,1,0.475,,1,0,40,8,1,1,bottom_left,neutral,threatening,,,,,,,,,,,,,,,,
,,,,,252125,m,y,r,n,12,0,2025-04-06_10h17.34.373,VisualSearchFaces,2024.2.4,Win32,60.24096386,,,,,,,,1222.7445,1222.8489,1222.849,1224.846,block4,j,1,0.4013,,1,1,41,13,1,1,bottom_left,friendly,neutral,,,,,,,,,,,,,,,,
,,,,,252125,m,y,r,n,12,0,2025-04-06_10h17.34.373,VisualSearchFaces,2024.2.4,Win32,60.24096386,,,,,,,,1225.8513,1225.9528,1225.9528,1227.9455,block4,j,1,0.3767,,1,2,42,1,1,1,top_left,neutral,friendly,,,,,,,,,,,,,,,,
,,,,,252125,m,y,r,n,12,0,2025-04-06_10h17.34.373,VisualSearchFaces,2024.2.4,Win32,60.24096386,,,,,,,,1228.9446,1229.0584,1229.0585,1231.0576,block4,f,1,0.4705,,1,3,43,24,1,0,bottom_right,neutral,no_target,,,,,,,,,,,,,,,,
,,,,,252125,m,y,r,n,12,0,2025-04-06_10h17.34.373,VisualSearchFaces,2024.2.4,Win32,60.24096386,,,,,,,,1232.0529,1232.1635,1232.1636,1234.1627,block4,j,1,0.373,,1,4,44,7,1,1,top_right,neutral,threatening,,,,,,,,,,,,,,,,
,,,,,252125,m,y,r,n,12,0,2025-04-06_10h17.34.373,VisualSearchFaces,2024.2.4,Win32,60.24096386,,,,,,,,1235.1631,1235.2748,1235.2748,1237.277,block4,f,1,0.5206,,1,5,45,27,1,0,top_right,neutral,no_target,,,,,,,,,,,,,,,,
,,,,,252125,m,y,r,n,12,0,2025-04-06_10h17.34.373,VisualSearchFaces,2024.2.4,Win32,60.24096386,,,,,,,,1238.2823,1238.3812,1238.3812,1240.3773,block4,f,1,0.4552,,1,6,46,20,1,0,centre,neutral,no_target,,,,,,,,,,,,,,,,
,,,,,252125,m,y,r,n,12,0,2025-04-06_10h17.34.373,VisualSearchFaces,2024.2.4,Win32,60.24096386,,,,,,,,1241.3851,1241.4989,1241.499,1243.4961,block4,f,1,0.3632,,1,7,47,28,1,0,bottom_left,neutral,no_target,,,,,,,,,,,,,,,,
,,,,,252125,m,y,r,n,12,0,2025-04-06_10h17.34.373,VisualSearchFaces,2024.2.4,Win32,60.24096386,,,,,,,,1244.4977,1244.612,1244.6121,1246.6121,block4,j,1,0.377,,1,8,48,0,1,1,centre,neutral,friendly,,,,,,,,,,,,,,,,
,,,,,252125,m,y,r,n,12,0,2025-04-06_10h17.34.373,VisualSearchFaces,2024.2.4,Win32,60.24096386,,,,,,,,1247.6189,1247.7242,1247.7243,1249.7275,block4,j,1,0.5103,,1,9,49,18,1,1,bottom_left,threatening,neutral,,,,,,,,,,,,,,,,
,,,,,252125,m,y,r,n,12,0,2025-04-06_10h17.34.373,VisualSearchFaces,2024.2.4,Win32,60.24096386,,,,,,,,1250.7149,1250.8215,1250.8216,1252.8119,block4,f,1,0.6307,,1,10,50,26,1,0,top_left,neutral,no_target,,,,,,,,,,,,,,,,
,,,,,252125,m,y,r,n,12,0,2025-04-06_10h17.34.373,VisualSearchFaces,2024.2.4,Win32,60.24096386,,,,,,,,1253.8142,1253.9122,1253.9122,1255.9122,block4,j,1,0.4107,,1,11,51,17,1,1,top_right,threatening,neutral,,,,,,,,,,,,,,,,
,,,,,252125,m,y,r,n,12,0,2025-04-06_10h17.34.373,VisualSearchFaces,2024.2.4,Win32,60.24096386,,,,,,,,1256.9107,1257.0155,1257.0156,1259.0139,block4,j,1,0.4039,,1,12,52,15,1,1,centre,threatening,neutral,,,,,,,,,,,,,,,,
,,,,,252125,m,y,r,n,12,0,2025-04-06_10h17.34.373,VisualSearchFaces,2024.2.4,Win32,60.24096386,,,,,,,,1260.0156,1260.1141,1260.1142,1262.1122,block4,f,1,0.5276,,1,13,53,36,1,0,top_left,threatening,no_target,,,,,,,,,,,,,,,,
,,,,,252125,m,y,r,n,12,0,2025-04-06_10h17.34.373,VisualSearchFaces,2024.2.4,Win32,60.24096386,,,,,,,,1263.1138,1263.2147,1263.2147,1265.2122,block4,j,1,0.3997,,1,14,54,16,1,1,top_left,threatening,neutral,,,,,,,,,,,,,,,,
,,,,,252125,m,y,r,n,12,0,2025-04-06_10h17.34.373,VisualSearchFaces,2024.2.4,Win32,60.24096386,,,,,,,,1266.2156,1266.3296,1266.3296,1268.324,block4,f,1,0.3872,,1,15,55,39,1,0,bottom_right,threatening,no_target,,,,,,,,,,,,,,,,
,,,,,252125,m,y,r,n,12,0,2025-04-06_10h17.34.373,VisualSearchFaces,2024.2.4,Win32,60.24096386,,,,,,,,1269.3281,1269.43,1269.4301,1271.4283,block4,f,1,0.4252,,1,16,56,37,1,0,top_right,threatening,no_target,,,,,,,,,,,,,,,,
,,,,,252125,m,y,r,n,12,0,2025-04-06_10h17.34.373,VisualSearchFaces,2024.2.4,Win32,60.24096386,,,,,,,,1272.431,1272.5309,1272.5309,1274.5327,block4,f,1,0.6293,,1,17,57,29,1,0,bottom_right,neutral,no_target,,,,,,,,,,,,,,,,
,,,,,252125,m,y,r,n,12,0,2025-04-06_10h17.34.373,VisualSearchFaces,2024.2.4,Win32,60.24096386,,,,,,,,1275.5315,1275.6325,1275.6326,1277.6327,block4,f,1,0.4688,,1,18,58,22,1,0,top_right,neutral,no_target,,,,,,,,,,,,,,,,
,,,,,252125,m,y,r,n,12,0,2025-04-06_10h17.34.373,VisualSearchFaces,2024.2.4,Win32,60.24096386,,,,,,,,1278.6425,1278.7475,1278.7475,1280.7456,block4,f,1,0.5065,,1,19,59,33,1,0,bottom_left,friendly,no_target,,,,,,,,,,,,,,,,
,,,,,252125,m,y,r,n,12,0,2025-04-06_10h17.34.373,VisualSearchFaces,2024.2.4,Win32,60.24096386,,,,,,,,1281.7497,1281.8574,1281.8574,1283.8458,block4,j,1,0.4051,,1,20,60,12,1,1,top_right,friendly,neutral,,,,,,,,,,,,,,,,
,,,,,252125,m,y,r,n,12,0,2025-04-06_10h17.34.373,VisualSearchFaces,2024.2.4,Win32,60.24096386,,,,,,,,1284.8595,1284.9612,1284.9613,1286.9613,block4,f,1,0.473,,1,21,61,31,1,0,top_left,friendly,no_target,,,,,,,,,,,,,,,,
,,,,,252125,m,y,r,n,12,0,2025-04-06_10h17.34.373,VisualSearchFaces,2024.2.4,Win32,60.24096386,,,,,,,,1287.9644,1288.0709,1288.0709,1290.0617,block4,j,1,1.075,,1,22,62,19,1,1,bottom_right,threatening,neutral,,,,,,,,,,,,,,,,
,,,,,252125,m,y,r,n,12,0,2025-04-06_10h17.34.373,VisualSearchFaces,2024.2.4,Win32,60.24096386,,,,,,,,1291.0638,1291.1779,1291.1779,1293.1788,block4,f,1,0.6406,,1,23,63,34,1,0,bottom_right,friendly,no_target,,,,,,,,,,,,,,,,
,,,,,252125,m,y,r,n,12,0,2025-04-06_10h17.34.373,VisualSearchFaces,2024.2.4,Win32,60.24096386,,,,,,,,1294.175,1294.2804,1294.2805,1296.2799,block4,f,1,0.4571,,1,24,64,21,1,0,top_left,neutral,no_target,,,,,,,,,,,,,,,,
,,,,,252125,m,y,r,n,12,0,2025-04-06_10h17.34.373,VisualSearchFaces,2024.2.4,Win32,60.24096386,,,,,,,,1297.2754,1297.3866,1297.3866,1299.3769,block4,j,1,0.418,,1,25,65,2,1,1,top_right,neutral,friendly,,,,,,,,,,,,,,,,
,,,,,252125,m,y,r,n,12,0,2025-04-06_10h17.34.373,VisualSearchFaces,2024.2.4,Win32,60.24096386,,,,,,,,1300.3867,1300.4929,1300.493,1302.5099,block4,j,1,0.4855,,1,26,66,11,1,1,top_left,friendly,neutral,,,,,,,,,,,,,,,,
,,,,,252125,m,y,r,n,12,0,2025-04-06_10h17.34.373,VisualSearchFaces,2024.2.4,Win32,60.24096386,,,,,,,,1303.4964,1303.6059,1303.606,1305.595,block4,j,1,0.4213,,1,27,67,3,1,1,bottom_left,neutral,friendly,,,,,,,,,,,,,,,,
,,,,,252125,m,y,r,n,12,0,2025-04-06_10h17.34.373,VisualSearchFaces,2024.2.4,Win32,60.24096386,,,,,,,,1306.598,1306.6967,1306.6967,1308.6889,block4,f,1,0.4842,,1,28,68,35,1,0,centre,threatening,no_target,,,,,,,,,,,,,,,,
,,,,,252125,m,y,r,n,12,0,2025-04-06_10h17.34.373,VisualSearchFaces,2024.2.4,Win32,60.24096386,,,,,,,,1309.6999,1309.7993,1309.7994,1311.7946,block4,j,1,0.4534,,1,29,69,10,1,1,centre,friendly,neutral,,,,,,,,,,,,,,,,
,,,,,252125,m,y,r,n,12,0,2025-04-06_10h17.34.373,VisualSearchFaces,2024.2.4,Win32,60.24096386,,,,,,,,1312.7993,1312.9126,1312.9127,1314.9115,block4,f,1,0.5132,,1,30,70,30,1,0,centre,friendly,no_target,,,,,,,,,,,,,,,,
,,,,,252125,m,y,r,n,12,0,2025-04-06_10h17.34.373,VisualSearchFaces,2024.2.4,Win32,60.24096386,,,,,,,,1315.9129,1316.0166,1316.0167,1318.0111,block4,f,0,0.6494,,1,31,71,4,1,1,bottom_right,neutral,friendly,,,,,,,,,,,,,,,,
,,,,,252125,m,y,r,n,12,0,2025-04-06_10h17.34.373,VisualSearchFaces,2024.2.4,Win32,60.24096386,,,,,,,,1319.0161,1319.1137,1319.1138,1321.1119,block4,j,1,0.5169,,1,32,72,9,1,1,bottom_right,neutral,threatening,,,,,,,,,,,,,,,,
,,,,,252125,m,y,r,n,12,0,2025-04-06_10h17.34.373,VisualSearchFaces,2024.2.4,Win32,60.24096386,,,,,,,,1322.1065,1322.2075,1322.2077,1324.2091,block4,f,1,0.5131,,1,33,73,23,1,0,bottom_left,neutral,no_target,,,,,,,,,,,,,,,,
,,,,,252125,m,y,r,n,12,0,2025-04-06_10h17.34.373,VisualSearchFaces,2024.2.4,Win32,60.24096386,,,,,,,,1325.1992,1325.3111,1325.3111,1327.3133,block4,f,1,0.4331,,1,34,74,25,1,0,centre,neutral,no_target,,,,,,,,,,,,,,,,
,,,,,252125,m,y,r,n,12,0,2025-04-06_10h17.34.373,VisualSearchFaces,2024.2.4,Win32,60.24096386,,,,,,,,1328.3031,1328.4152,1328.4153,1330.4057,block4,j,1,0.3443,,1,35,75,5,1,1,centre,neutral,threatening,,,,,,,,,,,,,,,,
,,,,,252125,m,y,r,n,12,0,2025-04-06_10h17.34.373,VisualSearchFaces,2024.2.4,Win32,60.24096386,,,,,,,,1331.4145,1331.5272,1331.5273,1333.5279,block4,j,0,0.5158,,1,36,76,38,1,0,bottom_left,threatening,no_target,,,,,,,,,,,,,,,,
,,,,,252125,m,y,r,n,12,0,2025-04-06_10h17.34.373,VisualSearchFaces,2024.2.4,Win32,60.24096386,,,,,,,,1334.5212,1334.6311,1334.6313,1336.6301,block4,j,1,0.5296,,1,37,77,6,1,1,top_left,neutral,threatening,,,,,,,,,,,,,,,,
,,,,,252125,m,y,r,n,12,0,2025-04-06_10h17.34.373,VisualSearchFaces,2024.2.4,Win32,60.24096386,,,,,,,,1337.633,1337.744,1337.744,1339.7445,block4,f,1,0.9888,,1,38,78,32,1,0,top_right,friendly,no_target,,,,,,,,,,,,,,,,
,,,,,252125,m,y,r,n,12,0,2025-04-06_10h17.34.373,VisualSearchFaces,2024.2.4,Win32,60.24096386,,,,,,,,1340.7464,1340.8574,1340.8574,1342.8606,block4,f,0,0.8011,,1,39,79,14,1,1,bottom_right,friendly,neutral,,,,,,,,,,,,,,,,
,,,,,252125,m,y,r,n,12,0,2025-04-06_10h17.34.373,VisualSearchFaces,2024.2.4,Win32,60.24096386,,,,,,,,,,,,,,,,,,,,,,,,,,1342.8636,1344.5963,space,1.7067,,1344.5977,1386.8726,"I saw smileys on the screen with different emotions, some were happy, some were very angry. There were 9 of these faces/smileys on the screens.",1,[1386.8717000000477],[1386.8717000000477],,,,,
,,,,,252125,m,y,r,n,12,0,2025-04-06_10h17.34.373,VisualSearchFaces,2024.2.4,Win32,60.24096386,,,,,,,,,,,,,,,,,,,,,,,,,,,,,,,,,,,,,1386.8731,1389.2577,space,2.3409,
