Welcome.started,Welcome.stopped,keyboard_space_welcome.keys,keyboard_space_welcome.rt,keyboard_space_welcome.duration,participant,gender,(corrected) normal vision,handedness,exp vse,session,skip_intro,date,expName,psychopyVersion,OS,frameRate,stimulus_exposure.started,stimulus_exposure.stopped,Block_intro.started,Block_intro.stopped,keyboard_space.keys,keyboard_space.rt,keyboard_space.duration,Stimulus.started,Stimulus.stopped,fixation_ending.started,fixation_ending.stopped,block_id,keyboard_response.keys,keyboard_response.corr,trials.thisRepN,trials.thisTrialN,trials.thisN,trials.thisIndex,trials.ran,target_presence,target_position,background_emotion,target_emotion,keyboard_response.rt,keyboard_response.duration,Block_outro.started,Block_outro.stopped,keyboard_space_end.keys,keyboard_space_end.rt,keyboard_space_end.duration,Question_about_stimulus.started,Question_about_stimulus.stopped,textbox_response.text,button.numClicks,button.timesOn,button.timesOff,Thanks.started,Thanks.stopped,keyboard_space_goodbye.keys,keyboard_space_goodbye.rt,keyboard_space_goodbye.duration
0.0001,10.3733,space,10.3625,,253617,m,y,l,n,12,0,2025-04-04_11h06.44.039,VisualSearchFaces,2024.2.4,MacIntel,59.88023952,,,,,,,,,,,,,,,,,,,,,,,,,,,,,,,,,,,,,,,,,
,,,,,253617,m,y,l,n,12,0,2025-04-04_11h06.44.039,VisualSearchFaces,2024.2.4,MacIntel,59.88023952,31.4919,34.5069,34.5146,49.0253,space,14.4826,,50.0258,50.2909,50.291,52.2912,practice1,,0,0,0,0,26,1,0,top_left,neutral,no_target,,,,,,,,,,,,,,,,,,
,,,,,253617,m,y,l,n,12,0,2025-04-04_11h06.44.039,VisualSearchFaces,2024.2.4,MacIntel,59.88023952,,,,,,,,53.2921,53.5566,53.5567,55.5572,practice1,j,1,0,1,1,2,1,1,top_right,neutral,friendly,0.4523,,,,,,,,,,,,,,,,,
,,,,,253617,m,y,l,n,12,0,2025-04-04_11h06.44.039,VisualSearchFaces,2024.2.4,MacIntel,59.88023952,,,,,,,,56.5591,56.824,56.8241,58.8239,practice1,j,1,0,2,2,1,1,1,top_left,neutral,friendly,0.6508,,,,,,,,,,,,,,,,,
,,,,,253617,m,y,l,n,12,0,2025-04-04_11h06.44.039,VisualSearchFaces,2024.2.4,MacIntel,59.88023952,,,,,,,,59.825,60.0743,60.0744,62.0743,practice1,f,1,0,3,3,27,1,0,top_right,neutral,no_target,0.5784,,,,,,,,,,,,,,,,,
,,,,,253617,m,y,l,n,12,0,2025-04-04_11h06.44.039,VisualSearchFaces,2024.2.4,MacIntel,59.88023952,,,,,,,,63.0757,63.3409,63.341,65.3409,practice1,f,0,0,4,4,3,1,1,bottom_left,neutral,friendly,0.5178,,,,,,,,,,,,,,,,,
,,,,,253617,m,y,l,n,12,0,2025-04-04_11h06.44.039,VisualSearchFaces,2024.2.4,MacIntel,59.88023952,,,,,,,,66.3425,66.5912,66.5912,68.5912,practice1,j,0,0,5,5,39,1,0,bottom_right,threatening,no_target,0.9656,,,,,,,,,,,,,,,,,
,,,,,253617,m,y,l,n,12,0,2025-04-04_11h06.44.039,VisualSearchFaces,2024.2.4,MacIntel,59.88023952,,,,,,,,69.5923,69.8411,69.8411,71.8409,practice1,j,0,0,6,6,25,1,0,centre,neutral,no_target,0.8457,,,,,,,,,,,,,,,,,
,,,,,253617,m,y,l,n,12,0,2025-04-04_11h06.44.039,VisualSearchFaces,2024.2.4,MacIntel,59.88023952,,,,,,,,72.8418,73.1077,73.1077,75.1078,practice1,j,0,0,7,7,36,1,0,top_left,threatening,no_target,0.6464,,,,,,,,,,,,,,,,,
,,,,,253617,m,y,l,n,12,0,2025-04-04_11h06.44.039,VisualSearchFaces,2024.2.4,MacIntel,59.88023952,,,,,,,,76.1089,76.3581,76.3581,78.3579,practice1,f,0,0,8,8,11,1,1,top_left,friendly,neutral,0.7772,,,,,,,,,,,,,,,,,
,,,,,253617,m,y,l,n,12,0,2025-04-04_11h06.44.039,VisualSearchFaces,2024.2.4,MacIntel,59.88023952,,,,,,,,79.3582,79.608,79.608,81.6079,practice1,f,0,0,9,9,10,1,1,centre,friendly,neutral,0.9264,,,,,,,,,,,,,,,,,
,,,,,253617,m,y,l,n,12,0,2025-04-04_11h06.44.039,VisualSearchFaces,2024.2.4,MacIntel,59.88023952,,,,,,,,82.6085,82.8745,82.8746,84.8747,practice1,f,0,0,10,10,8,1,1,bottom_left,neutral,threatening,0.888,,,,,,,,,,,,,,,,,
,,,,,253617,m,y,l,n,12,0,2025-04-04_11h06.44.039,VisualSearchFaces,2024.2.4,MacIntel,59.88023952,,,,,,,,85.8757,86.1413,86.1414,88.1415,practice1,f,0,0,11,11,17,1,1,top_right,threatening,neutral,0.7665,,,,,,,,,,,,,,,,,
,,,,,253617,m,y,l,n,12,0,2025-04-04_11h06.44.039,VisualSearchFaces,2024.2.4,MacIntel,59.88023952,,,,,,,,89.1432,89.4084,89.4084,91.4084,practice1,,0,0,12,12,7,1,1,top_right,neutral,threatening,,,,,,,,,,,,,,,,,,
,,,,,253617,m,y,l,n,12,0,2025-04-04_11h06.44.039,VisualSearchFaces,2024.2.4,MacIntel,59.88023952,,,,,,,,92.4104,92.6749,92.675,94.6749,practice1,j,0,0,13,13,33,1,0,bottom_left,friendly,no_target,0.8952,,,,,,,,,,,,,,,,,
,,,,,253617,m,y,l,n,12,0,2025-04-04_11h06.44.039,VisualSearchFaces,2024.2.4,MacIntel,59.88023952,,,,,,,,95.6754,95.9416,95.9416,97.9415,practice1,j,0,0,14,14,35,1,0,centre,threatening,no_target,1.1673,,,,,,,,,,,,,,,,,
,,,,,253617,m,y,l,n,12,0,2025-04-04_11h06.44.039,VisualSearchFaces,2024.2.4,MacIntel,59.88023952,,,,,,,,98.9433,99.2086,99.2086,101.2087,practice1,j,1,0,15,15,16,1,1,top_left,threatening,neutral,1.1488,,,,,,,,,,,,,,,,,
,,,,,253617,m,y,l,n,12,0,2025-04-04_11h06.44.039,VisualSearchFaces,2024.2.4,MacIntel,59.88023952,,,,,,,,102.2101,102.4753,102.4753,104.4753,practice1,j,1,0,16,16,13,1,1,bottom_left,friendly,neutral,1.6165,,,,,,,,,,,,,,,,,
,,,,,253617,m,y,l,n,12,0,2025-04-04_11h06.44.039,VisualSearchFaces,2024.2.4,MacIntel,59.88023952,,,,,,,,105.4774,105.7422,105.7422,107.7423,practice1,f,1,0,17,17,30,1,0,centre,friendly,no_target,0.8039,,,,,,,,,,,,,,,,,
,,,,,253617,m,y,l,n,12,0,2025-04-04_11h06.44.039,VisualSearchFaces,2024.2.4,MacIntel,59.88023952,,,,,,,,108.7438,109.0088,109.0088,111.0087,practice1,f,0,0,18,18,0,1,1,centre,neutral,friendly,1.0795,,,,,,,,,,,,,,,,,
,,,,,253617,m,y,l,n,12,0,2025-04-04_11h06.44.039,VisualSearchFaces,2024.2.4,MacIntel,59.88023952,,,,,,,,112.01,112.2754,112.2755,114.2757,practice1,f,1,0,19,19,38,1,0,bottom_left,threatening,no_target,0.8714,,,,,,,,,,,,,,,,,
,,,,,253617,m,y,l,n,12,0,2025-04-04_11h06.44.039,VisualSearchFaces,2024.2.4,MacIntel,59.88023952,,,,,,,,115.2763,115.5423,115.5424,117.5424,practice1,j,0,0,20,20,31,1,0,top_left,friendly,no_target,0.7178,,,,,,,,,,,,,,,,,
,,,,,253617,m,y,l,n,12,0,2025-04-04_11h06.44.039,VisualSearchFaces,2024.2.4,MacIntel,59.88023952,,,,,,,,118.5426,118.8089,118.8089,120.8091,practice1,j,1,0,21,21,6,1,1,top_left,neutral,threatening,1.4354,,,,,,,,,,,,,,,,,
,,,,,253617,m,y,l,n,12,0,2025-04-04_11h06.44.039,VisualSearchFaces,2024.2.4,MacIntel,59.88023952,,,,,,,,121.8107,122.0758,122.0758,124.0759,practice1,f,1,0,22,22,28,1,0,bottom_left,neutral,no_target,0.8269,,,,,,,,,,,,,,,,,
,,,,,253617,m,y,l,n,12,0,2025-04-04_11h06.44.039,VisualSearchFaces,2024.2.4,MacIntel,59.88023952,,,,,,,,125.0772,125.3425,125.3425,127.3426,practice1,f,1,0,23,23,37,1,0,top_right,threatening,no_target,0.9176,,,,,,,,,,,,,,,,,
,,,,,253617,m,y,l,n,12,0,2025-04-04_11h06.44.039,VisualSearchFaces,2024.2.4,MacIntel,59.88023952,,,,,,,,128.3439,128.6091,128.6091,130.6094,practice1,j,1,0,24,24,5,1,1,centre,neutral,threatening,0.6619,,,,,,,,,,,,,,,,,
,,,,,253617,m,y,l,n,12,0,2025-04-04_11h06.44.039,VisualSearchFaces,2024.2.4,MacIntel,59.88023952,,,,,,,,131.6109,131.8759,131.876,133.876,practice1,j,1,0,25,25,12,1,1,top_right,friendly,neutral,1.3942,,,,,,,,,,,,,,,,,
,,,,,253617,m,y,l,n,12,0,2025-04-04_11h06.44.039,VisualSearchFaces,2024.2.4,MacIntel,59.88023952,,,,,,,,134.8772,135.1429,135.1429,137.1428,practice1,f,1,0,26,26,21,1,0,top_left,neutral,no_target,0.8206,,,,,,,,,,,,,,,,,
,,,,,253617,m,y,l,n,12,0,2025-04-04_11h06.44.039,VisualSearchFaces,2024.2.4,MacIntel,59.88023952,,,,,,,,138.1441,138.4096,138.4096,140.4095,practice1,f,1,0,27,27,32,1,0,top_right,friendly,no_target,0.7666,,,,,,,,,,,,,,,,,
,,,,,253617,m,y,l,n,12,0,2025-04-04_11h06.44.039,VisualSearchFaces,2024.2.4,MacIntel,59.88023952,,,,,,,,141.4095,141.6594,141.6594,143.6597,practice1,f,1,0,28,28,24,1,0,bottom_right,neutral,no_target,0.769,,,,,,,,,,,,,,,,,
,,,,,253617,m,y,l,n,12,0,2025-04-04_11h06.44.039,VisualSearchFaces,2024.2.4,MacIntel,59.88023952,,,,,,,,144.6612,144.9255,144.9255,146.9264,practice1,j,1,0,29,29,4,1,1,bottom_right,neutral,friendly,0.6378,,,,,,,,,,,,,,,,,
,,,,,253617,m,y,l,n,12,0,2025-04-04_11h06.44.039,VisualSearchFaces,2024.2.4,MacIntel,59.88023952,,,,,,,,147.928,148.193,148.1931,150.1932,practice1,j,1,0,30,30,19,1,1,bottom_right,threatening,neutral,0.6507,,,,,,,,,,,,,,,,,
,,,,,253617,m,y,l,n,12,0,2025-04-04_11h06.44.039,VisualSearchFaces,2024.2.4,MacIntel,59.88023952,,,,,,,,151.1942,151.4599,151.4599,153.46,practice1,j,1,0,31,31,15,1,1,centre,threatening,neutral,1.0163,,,,,,,,,,,,,,,,,
,,,,,253617,m,y,l,n,12,0,2025-04-04_11h06.44.039,VisualSearchFaces,2024.2.4,MacIntel,59.88023952,,,,,,,,154.4616,154.7266,154.7267,156.7257,practice1,j,1,0,32,32,9,1,1,bottom_right,neutral,threatening,0.6371,,,,,,,,,,,,,,,,,
,,,,,253617,m,y,l,n,12,0,2025-04-04_11h06.44.039,VisualSearchFaces,2024.2.4,MacIntel,59.88023952,,,,,,,,157.7281,157.9934,157.9935,159.9934,practice1,j,1,0,33,33,18,1,1,bottom_left,threatening,neutral,0.7557,,,,,,,,,,,,,,,,,
,,,,,253617,m,y,l,n,12,0,2025-04-04_11h06.44.039,VisualSearchFaces,2024.2.4,MacIntel,59.88023952,,,,,,,,160.9945,161.2602,161.2602,163.2601,practice1,f,1,0,34,34,34,1,0,bottom_right,friendly,no_target,0.9039,,,,,,,,,,,,,,,,,
,,,,,253617,m,y,l,n,12,0,2025-04-04_11h06.44.039,VisualSearchFaces,2024.2.4,MacIntel,59.88023952,,,,,,,,164.2604,164.5102,164.5103,166.5102,practice1,f,1,0,35,35,29,1,0,bottom_right,neutral,no_target,0.8379,,,,,,,,,,,,,,,,,
,,,,,253617,m,y,l,n,12,0,2025-04-04_11h06.44.039,VisualSearchFaces,2024.2.4,MacIntel,59.88023952,,,,,,,,167.512,167.7769,167.777,169.7769,practice1,f,1,0,36,36,20,1,0,centre,neutral,no_target,0.8195,,,,,,,,,,,,,,,,,
,,,,,253617,m,y,l,n,12,0,2025-04-04_11h06.44.039,VisualSearchFaces,2024.2.4,MacIntel,59.88023952,,,,,,,,170.7786,171.0438,171.0438,173.0437,practice1,f,1,0,37,37,22,1,0,top_right,neutral,no_target,1.5006,,,,,,,,,,,,,,,,,
,,,,,253617,m,y,l,n,12,0,2025-04-04_11h06.44.039,VisualSearchFaces,2024.2.4,MacIntel,59.88023952,,,,,,,,174.0448,174.3105,174.3105,176.3105,practice1,f,1,0,38,38,23,1,0,bottom_left,neutral,no_target,0.8095,,,,,,,,,,,,,,,,,
,,,,,253617,m,y,l,n,12,0,2025-04-04_11h06.44.039,VisualSearchFaces,2024.2.4,MacIntel,59.88023952,,,,,,,,177.3122,177.5772,177.5773,179.5772,practice1,j,1,0,39,39,14,1,1,bottom_right,friendly,neutral,0.6448,,,,,,,,,,,,,,,,,
,,,,,253617,m,y,l,n,12,0,2025-04-04_11h06.44.039,VisualSearchFaces,2024.2.4,MacIntel,59.88023952,,,202.3992,216.6282,space,14.203,,217.6298,217.7441,217.7441,219.7449,practice2,f,1,0,0,0,32,1,0,top_right,friendly,no_target,1.0799,,179.5777,202.395,space,22.7952,,,,,,,,,,,,
,,,,,253617,m,y,l,n,12,0,2025-04-04_11h06.44.039,VisualSearchFaces,2024.2.4,MacIntel,59.88023952,,,,,,,,220.7464,220.8616,220.8616,222.8617,practice2,f,1,0,1,1,37,1,0,top_right,threatening,no_target,0.9118,,,,,,,,,,,,,,,,,
,,,,,253617,m,y,l,n,12,0,2025-04-04_11h06.44.039,VisualSearchFaces,2024.2.4,MacIntel,59.88023952,,,,,,,,223.8641,223.9785,223.9785,225.9778,practice2,f,1,0,2,2,22,1,0,top_right,neutral,no_target,0.8167,,,,,,,,,,,,,,,,,
,,,,,253617,m,y,l,n,12,0,2025-04-04_11h06.44.039,VisualSearchFaces,2024.2.4,MacIntel,59.88023952,,,,,,,,226.9797,227.0786,227.0786,229.0785,practice2,f,1,0,3,3,24,1,0,bottom_right,neutral,no_target,0.7515,,,,,,,,,,,,,,,,,
,,,,,253617,m,y,l,n,12,0,2025-04-04_11h06.44.039,VisualSearchFaces,2024.2.4,MacIntel,59.88023952,,,,,,,,230.0797,230.1952,230.1952,232.1952,practice2,j,1,0,4,4,13,1,1,bottom_left,friendly,neutral,0.6792,,,,,,,,,,,,,,,,,
,,,,,253617,m,y,l,n,12,0,2025-04-04_11h06.44.039,VisualSearchFaces,2024.2.4,MacIntel,59.88023952,,,,,,,,233.196,233.2953,233.2953,235.2953,practice2,j,1,0,5,5,12,1,1,top_right,friendly,neutral,0.5955,,,,,,,,,,,,,,,,,
,,,,,253617,m,y,l,n,12,0,2025-04-04_11h06.44.039,VisualSearchFaces,2024.2.4,MacIntel,59.88023952,,,,,,,,236.2966,236.412,236.4121,238.4112,practice2,j,1,0,6,6,11,1,1,top_left,friendly,neutral,0.5537,,,,,,,,,,,,,,,,,
,,,,,253617,m,y,l,n,12,0,2025-04-04_11h06.44.039,VisualSearchFaces,2024.2.4,MacIntel,59.88023952,,,,,,,,239.413,239.512,239.5121,241.5121,practice2,f,1,0,7,7,21,1,0,top_left,neutral,no_target,1.4461,,,,,,,,,,,,,,,,,
,,,,,253617,m,y,l,n,12,0,2025-04-04_11h06.44.039,VisualSearchFaces,2024.2.4,MacIntel,59.88023952,,,,,,,,242.513,242.6288,242.6288,244.6289,practice2,f,1,0,8,8,35,1,0,centre,threatening,no_target,1.1004,,,,,,,,,,,,,,,,,
,,,,,253617,m,y,l,n,12,0,2025-04-04_11h06.44.039,VisualSearchFaces,2024.2.4,MacIntel,59.88023952,,,,,,,,245.6296,245.7456,245.7456,247.7455,practice2,j,1,0,9,9,9,1,1,bottom_right,neutral,threatening,1.5341,,,,,,,,,,,,,,,,,
,,,,,253617,m,y,l,n,12,0,2025-04-04_11h06.44.039,VisualSearchFaces,2024.2.4,MacIntel,59.88023952,,,,,,,,248.7462,248.8456,248.8456,250.8456,practice2,j,1,0,10,10,15,1,1,centre,threatening,neutral,1.0117,,,,,,,,,,,,,,,,,
,,,,,253617,m,y,l,n,12,0,2025-04-04_11h06.44.039,VisualSearchFaces,2024.2.4,MacIntel,59.88023952,,,,,,,,251.8463,251.9457,251.9457,253.9458,practice2,f,1,0,11,11,30,1,0,centre,friendly,no_target,1.3119,,,,,,,,,,,,,,,,,
,,,,,253617,m,y,l,n,12,0,2025-04-04_11h06.44.039,VisualSearchFaces,2024.2.4,MacIntel,59.88023952,,,,,,,,254.9474,255.0625,255.0625,257.0626,practice2,f,1,0,12,12,20,1,0,centre,neutral,no_target,0.8676,,,,,,,,,,,,,,,,,
,,,,,253617,m,y,l,n,12,0,2025-04-04_11h06.44.039,VisualSearchFaces,2024.2.4,MacIntel,59.88023952,,,,,,,,258.064,258.1791,258.1791,260.1793,practice2,f,1,0,13,13,39,1,0,bottom_right,threatening,no_target,0.8972,,,,,,,,,,,,,,,,,
,,,,,253617,m,y,l,n,12,0,2025-04-04_11h06.44.039,VisualSearchFaces,2024.2.4,MacIntel,59.88023952,,,,,,,,261.1809,261.2794,261.2795,263.2795,practice2,j,1,0,14,14,16,1,1,top_left,threatening,neutral,1.6432,,,,,,,,,,,,,,,,,
,,,,,253617,m,y,l,n,12,0,2025-04-04_11h06.44.039,VisualSearchFaces,2024.2.4,MacIntel,59.88023952,,,,,,,,264.2806,264.396,264.396,266.3962,practice2,f,1,0,15,15,29,1,0,bottom_right,neutral,no_target,0.8004,,,,,,,,,,,,,,,,,
,,,,,253617,m,y,l,n,12,0,2025-04-04_11h06.44.039,VisualSearchFaces,2024.2.4,MacIntel,59.88023952,,,,,,,,267.3974,267.5129,267.5129,269.5128,practice2,j,1,0,16,16,17,1,1,top_right,threatening,neutral,0.8538,,,,,,,,,,,,,,,,,
,,,,,253617,m,y,l,n,12,0,2025-04-04_11h06.44.039,VisualSearchFaces,2024.2.4,MacIntel,59.88023952,,,,,,,,270.5141,270.629,270.6291,272.6297,practice2,j,1,0,17,17,3,1,1,bottom_left,neutral,friendly,1.0287,,,,,,,,,,,,,,,,,
,,,,,253617,m,y,l,n,12,0,2025-04-04_11h06.44.039,VisualSearchFaces,2024.2.4,MacIntel,59.88023952,,,,,,,,273.6309,273.7464,273.7464,275.7464,practice2,j,1,0,18,18,0,1,1,centre,neutral,friendly,0.7668,,,,,,,,,,,,,,,,,
,,,,,253617,m,y,l,n,12,0,2025-04-04_11h06.44.039,VisualSearchFaces,2024.2.4,MacIntel,59.88023952,,,,,,,,276.7476,276.8465,276.8465,278.8465,practice2,f,1,0,19,19,34,1,0,bottom_right,friendly,no_target,0.969,,,,,,,,,,,,,,,,,
,,,,,253617,m,y,l,n,12,0,2025-04-04_11h06.44.039,VisualSearchFaces,2024.2.4,MacIntel,59.88023952,,,,,,,,279.8473,279.9465,279.9466,281.9466,practice2,j,1,0,20,20,4,1,1,bottom_right,neutral,friendly,0.9498,,,,,,,,,,,,,,,,,
,,,,,253617,m,y,l,n,12,0,2025-04-04_11h06.44.039,VisualSearchFaces,2024.2.4,MacIntel,59.88023952,,,,,,,,282.9477,283.0632,283.0632,285.0632,practice2,j,1,0,21,21,5,1,1,centre,neutral,threatening,1.1331,,,,,,,,,,,,,,,,,
,,,,,253617,m,y,l,n,12,0,2025-04-04_11h06.44.039,VisualSearchFaces,2024.2.4,MacIntel,59.88023952,,,,,,,,286.0642,286.1633,286.1633,288.1627,practice2,f,1,0,22,22,36,1,0,top_left,threatening,no_target,1.0045,,,,,,,,,,,,,,,,,
,,,,,253617,m,y,l,n,12,0,2025-04-04_11h06.44.039,VisualSearchFaces,2024.2.4,MacIntel,59.88023952,,,,,,,,289.1652,289.2802,289.2802,291.2802,practice2,f,1,0,23,23,33,1,0,bottom_left,friendly,no_target,1.2168,,,,,,,,,,,,,,,,,
,,,,,253617,m,y,l,n,12,0,2025-04-04_11h06.44.039,VisualSearchFaces,2024.2.4,MacIntel,59.88023952,,,,,,,,292.2818,292.3968,292.3968,294.3969,practice2,,0,0,24,24,1,1,1,top_left,neutral,friendly,,,,,,,,,,,,,,,,,,
,,,,,253617,m,y,l,n,12,0,2025-04-04_11h06.44.039,VisualSearchFaces,2024.2.4,MacIntel,59.88023952,,,,,,,,295.3974,295.5136,295.5136,297.5135,practice2,j,1,0,25,25,8,1,1,bottom_left,neutral,threatening,0.7342,,,,,,,,,,,,,,,,,
,,,,,253617,m,y,l,n,12,0,2025-04-04_11h06.44.039,VisualSearchFaces,2024.2.4,MacIntel,59.88023952,,,,,,,,298.5141,298.6137,298.6137,300.6136,practice2,f,1,0,26,26,27,1,0,top_right,neutral,no_target,0.694,,,,,,,,,,,,,,,,,
,,,,,253617,m,y,l,n,12,0,2025-04-04_11h06.44.039,VisualSearchFaces,2024.2.4,MacIntel,59.88023952,,,,,,,,301.6151,301.7303,301.7304,303.7305,practice2,f,1,0,27,27,31,1,0,top_left,friendly,no_target,0.6541,,,,,,,,,,,,,,,,,
,,,,,253617,m,y,l,n,12,0,2025-04-04_11h06.44.039,VisualSearchFaces,2024.2.4,MacIntel,59.88023952,,,,,,,,304.7316,304.8305,304.8305,306.8305,practice2,j,1,0,28,28,19,1,1,bottom_right,threatening,neutral,0.7161,,,,,,,,,,,,,,,,,
,,,,,253617,m,y,l,n,12,0,2025-04-04_11h06.44.039,VisualSearchFaces,2024.2.4,MacIntel,59.88023952,,,,,,,,307.8315,307.9307,307.9307,309.9301,practice2,f,1,0,29,29,25,1,0,centre,neutral,no_target,1.1015,,,,,,,,,,,,,,,,,
,,,,,253617,m,y,l,n,12,0,2025-04-04_11h06.44.039,VisualSearchFaces,2024.2.4,MacIntel,59.88023952,,,,,,,,310.9314,311.0306,311.0306,313.0307,practice2,j,1,0,30,30,14,1,1,bottom_right,friendly,neutral,0.8936,,,,,,,,,,,,,,,,,
,,,,,253617,m,y,l,n,12,0,2025-04-04_11h06.44.039,VisualSearchFaces,2024.2.4,MacIntel,59.88023952,,,,,,,,314.0311,314.1472,314.1472,316.1473,practice2,f,1,0,31,31,26,1,0,top_left,neutral,no_target,0.718,,,,,,,,,,,,,,,,,
,,,,,253617,m,y,l,n,12,0,2025-04-04_11h06.44.039,VisualSearchFaces,2024.2.4,MacIntel,59.88023952,,,,,,,,317.1483,317.2642,317.2642,319.2635,practice2,j,1,0,32,32,7,1,1,top_right,neutral,threatening,0.6164,,,,,,,,,,,,,,,,,
,,,,,253617,m,y,l,n,12,0,2025-04-04_11h06.44.039,VisualSearchFaces,2024.2.4,MacIntel,59.88023952,,,,,,,,320.2648,320.38,320.38,322.3809,practice2,j,1,0,33,33,2,1,1,top_right,neutral,friendly,0.6205,,,,,,,,,,,,,,,,,
,,,,,253617,m,y,l,n,12,0,2025-04-04_11h06.44.039,VisualSearchFaces,2024.2.4,MacIntel,59.88023952,,,,,,,,323.3814,323.4809,323.4809,325.481,practice2,j,1,0,34,34,10,1,1,centre,friendly,neutral,0.6021,,,,,,,,,,,,,,,,,
,,,,,253617,m,y,l,n,12,0,2025-04-04_11h06.44.039,VisualSearchFaces,2024.2.4,MacIntel,59.88023952,,,,,,,,326.4821,326.5977,326.5977,328.5978,practice2,f,0,0,35,35,18,1,1,bottom_left,threatening,neutral,0.6033,,,,,,,,,,,,,,,,,
,,,,,253617,m,y,l,n,12,0,2025-04-04_11h06.44.039,VisualSearchFaces,2024.2.4,MacIntel,59.88023952,,,,,,,,329.5994,329.7144,329.7144,331.7147,practice2,f,1,0,36,36,28,1,0,bottom_left,neutral,no_target,0.8259,,,,,,,,,,,,,,,,,
,,,,,253617,m,y,l,n,12,0,2025-04-04_11h06.44.039,VisualSearchFaces,2024.2.4,MacIntel,59.88023952,,,,,,,,332.7162,332.8146,332.8146,334.8148,practice2,f,1,0,37,37,38,1,0,bottom_left,threatening,no_target,0.9777,,,,,,,,,,,,,,,,,
,,,,,253617,m,y,l,n,12,0,2025-04-04_11h06.44.039,VisualSearchFaces,2024.2.4,MacIntel,59.88023952,,,,,,,,335.817,335.9314,335.9314,337.9314,practice2,j,1,0,38,38,6,1,1,top_left,neutral,threatening,1.0945,,,,,,,,,,,,,,,,,
,,,,,253617,m,y,l,n,12,0,2025-04-04_11h06.44.039,VisualSearchFaces,2024.2.4,MacIntel,59.88023952,,,,,,,,338.9326,339.048,339.048,341.048,practice2,f,1,0,39,39,23,1,0,bottom_left,neutral,no_target,0.6495,,,,,,,,,,,,,,,,,
,,,,,253617,m,y,l,n,12,0,2025-04-04_11h06.44.039,VisualSearchFaces,2024.2.4,MacIntel,59.88023952,,,347.1004,362.5328,space,15.4235,,363.5333,363.6487,363.6488,365.6488,block1,f,1,0,0,0,29,1,0,bottom_right,neutral,no_target,0.6666,,341.0511,347.0984,space,6.0301,,,,,,,,,,,,
,,,,,253617,m,y,l,n,12,0,2025-04-04_11h06.44.039,VisualSearchFaces,2024.2.4,MacIntel,59.88023952,,,,,,,,366.65,366.7653,366.7655,368.7655,block1,f,1,0,1,1,28,1,0,bottom_left,neutral,no_target,0.5098,,,,,,,,,,,,,,,,,
,,,,,253617,m,y,l,n,12,0,2025-04-04_11h06.44.039,VisualSearchFaces,2024.2.4,MacIntel,59.88023952,,,,,,,,369.7669,369.8655,369.8656,371.8655,block1,f,1,0,2,2,22,1,0,top_right,neutral,no_target,0.7354,,,,,,,,,,,,,,,,,
,,,,,253617,m,y,l,n,12,0,2025-04-04_11h06.44.039,VisualSearchFaces,2024.2.4,MacIntel,59.88023952,,,,,,,,372.867,372.9655,372.9655,374.9657,block1,j,1,0,3,3,19,1,1,bottom_right,threatening,neutral,0.6171,,,,,,,,,,,,,,,,,
,,,,,253617,m,y,l,n,12,0,2025-04-04_11h06.44.039,VisualSearchFaces,2024.2.4,MacIntel,59.88023952,,,,,,,,375.9659,376.0656,376.0657,378.0659,block1,f,1,0,4,4,39,1,0,bottom_right,threatening,no_target,0.4664,,,,,,,,,,,,,,,,,
,,,,,253617,m,y,l,n,12,0,2025-04-04_11h06.44.039,VisualSearchFaces,2024.2.4,MacIntel,59.88023952,,,,,,,,379.0669,379.1824,379.1824,381.1824,block1,j,1,0,5,5,1,1,1,top_left,neutral,friendly,0.4026,,,,,,,,,,,,,,,,,
,,,,,253617,m,y,l,n,12,0,2025-04-04_11h06.44.039,VisualSearchFaces,2024.2.4,MacIntel,59.88023952,,,,,,,,382.1836,382.2825,382.2825,384.2826,block1,f,1,0,6,6,30,1,0,centre,friendly,no_target,0.5207,,,,,,,,,,,,,,,,,
,,,,,253617,m,y,l,n,12,0,2025-04-04_11h06.44.039,VisualSearchFaces,2024.2.4,MacIntel,59.88023952,,,,,,,,385.2825,385.3825,385.3826,387.3827,block1,f,1,0,7,7,35,1,0,centre,threatening,no_target,0.804,,,,,,,,,,,,,,,,,
,,,,,253617,m,y,l,n,12,0,2025-04-04_11h06.44.039,VisualSearchFaces,2024.2.4,MacIntel,59.88023952,,,,,,,,388.3839,388.4994,388.4994,390.4997,block1,j,1,0,8,8,11,1,1,top_left,friendly,neutral,0.4933,,,,,,,,,,,,,,,,,
,,,,,253617,m,y,l,n,12,0,2025-04-04_11h06.44.039,VisualSearchFaces,2024.2.4,MacIntel,59.88023952,,,,,,,,391.5005,391.5994,391.5995,393.5995,block1,f,1,0,9,9,27,1,0,top_right,neutral,no_target,0.5163,,,,,,,,,,,,,,,,,
,,,,,253617,m,y,l,n,12,0,2025-04-04_11h06.44.039,VisualSearchFaces,2024.2.4,MacIntel,59.88023952,,,,,,,,394.6007,394.7162,394.7163,396.7162,block1,f,1,0,10,10,33,1,0,bottom_left,friendly,no_target,0.6706,,,,,,,,,,,,,,,,,
,,,,,253617,m,y,l,n,12,0,2025-04-04_11h06.44.039,VisualSearchFaces,2024.2.4,MacIntel,59.88023952,,,,,,,,397.7169,397.8166,397.8166,399.8162,block1,f,1,0,11,11,26,1,0,top_left,neutral,no_target,0.6099,,,,,,,,,,,,,,,,,
,,,,,253617,m,y,l,n,12,0,2025-04-04_11h06.44.039,VisualSearchFaces,2024.2.4,MacIntel,59.88023952,,,,,,,,400.8174,400.9163,400.9164,402.9162,block1,j,1,0,12,12,7,1,1,top_right,neutral,threatening,0.5667,,,,,,,,,,,,,,,,,
,,,,,253617,m,y,l,n,12,0,2025-04-04_11h06.44.039,VisualSearchFaces,2024.2.4,MacIntel,59.88023952,,,,,,,,403.9174,404.0163,404.0163,406.0164,block1,j,1,0,13,13,18,1,1,bottom_left,threatening,neutral,0.5171,,,,,,,,,,,,,,,,,
,,,,,253617,m,y,l,n,12,0,2025-04-04_11h06.44.039,VisualSearchFaces,2024.2.4,MacIntel,59.88023952,,,,,,,,407.0176,407.1332,407.1332,409.1331,block1,f,1,0,14,14,36,1,0,top_left,threatening,no_target,0.6838,,,,,,,,,,,,,,,,,
,,,,,253617,m,y,l,n,12,0,2025-04-04_11h06.44.039,VisualSearchFaces,2024.2.4,MacIntel,59.88023952,,,,,,,,410.1344,410.2492,410.2492,412.2503,block1,f,1,0,15,15,34,1,0,bottom_right,friendly,no_target,0.6444,,,,,,,,,,,,,,,,,
,,,,,253617,m,y,l,n,12,0,2025-04-04_11h06.44.039,VisualSearchFaces,2024.2.4,MacIntel,59.88023952,,,,,,,,413.2515,413.366,413.3661,415.367,block1,j,1,0,16,16,13,1,1,bottom_left,friendly,neutral,0.7348,,,,,,,,,,,,,,,,,
,,,,,253617,m,y,l,n,12,0,2025-04-04_11h06.44.039,VisualSearchFaces,2024.2.4,MacIntel,59.88023952,,,,,,,,416.3685,416.4833,416.4834,418.4837,block1,j,1,0,17,17,5,1,1,centre,neutral,threatening,0.546,,,,,,,,,,,,,,,,,
,,,,,253617,m,y,l,n,12,0,2025-04-04_11h06.44.039,VisualSearchFaces,2024.2.4,MacIntel,59.88023952,,,,,,,,419.4847,419.5837,419.5837,421.5837,block1,f,1,0,18,18,24,1,0,bottom_right,neutral,no_target,0.6292,,,,,,,,,,,,,,,,,
,,,,,253617,m,y,l,n,12,0,2025-04-04_11h06.44.039,VisualSearchFaces,2024.2.4,MacIntel,59.88023952,,,,,,,,422.5853,422.7002,422.7003,424.7002,block1,j,1,0,19,19,0,1,1,centre,neutral,friendly,0.6865,,,,,,,,,,,,,,,,,
,,,,,253617,m,y,l,n,12,0,2025-04-04_11h06.44.039,VisualSearchFaces,2024.2.4,MacIntel,59.88023952,,,,,,,,425.7018,425.817,425.8171,427.8173,block1,j,1,0,20,20,6,1,1,top_left,neutral,threatening,0.5338,,,,,,,,,,,,,,,,,
,,,,,253617,m,y,l,n,12,0,2025-04-04_11h06.44.039,VisualSearchFaces,2024.2.4,MacIntel,59.88023952,,,,,,,,428.8182,428.9172,428.9173,430.9174,block1,j,1,0,21,21,14,1,1,bottom_right,friendly,neutral,0.8501,,,,,,,,,,,,,,,,,
,,,,,253617,m,y,l,n,12,0,2025-04-04_11h06.44.039,VisualSearchFaces,2024.2.4,MacIntel,59.88023952,,,,,,,,431.9186,432.0337,432.0337,434.0338,block1,f,1,0,22,22,20,1,0,centre,neutral,no_target,0.5331,,,,,,,,,,,,,,,,,
,,,,,253617,m,y,l,n,12,0,2025-04-04_11h06.44.039,VisualSearchFaces,2024.2.4,MacIntel,59.88023952,,,,,,,,435.0349,435.1338,435.1339,437.1341,block1,f,1,0,23,23,37,1,0,top_right,threatening,no_target,0.7503,,,,,,,,,,,,,,,,,
,,,,,253617,m,y,l,n,12,0,2025-04-04_11h06.44.039,VisualSearchFaces,2024.2.4,MacIntel,59.88023952,,,,,,,,438.1351,438.2507,438.2507,440.2499,block1,j,1,0,24,24,17,1,1,top_right,threatening,neutral,0.9167,,,,,,,,,,,,,,,,,
,,,,,253617,m,y,l,n,12,0,2025-04-04_11h06.44.039,VisualSearchFaces,2024.2.4,MacIntel,59.88023952,,,,,,,,441.2519,441.3674,441.3675,443.3675,block1,j,1,0,25,25,15,1,1,centre,threatening,neutral,0.5268,,,,,,,,,,,,,,,,,
,,,,,253617,m,y,l,n,12,0,2025-04-04_11h06.44.039,VisualSearchFaces,2024.2.4,MacIntel,59.88023952,,,,,,,,444.3692,444.4842,444.4843,446.4834,block1,f,1,0,26,26,32,1,0,top_right,friendly,no_target,0.4945,,,,,,,,,,,,,,,,,
,,,,,253617,m,y,l,n,12,0,2025-04-04_11h06.44.039,VisualSearchFaces,2024.2.4,MacIntel,59.88023952,,,,,,,,447.4855,447.6008,447.6008,449.601,block1,f,1,0,27,27,38,1,0,bottom_left,threatening,no_target,0.6119,,,,,,,,,,,,,,,,,
,,,,,253617,m,y,l,n,12,0,2025-04-04_11h06.44.039,VisualSearchFaces,2024.2.4,MacIntel,59.88023952,,,,,,,,450.6025,450.7179,450.7179,452.7177,block1,j,1,0,28,28,12,1,1,top_right,friendly,neutral,0.4087,,,,,,,,,,,,,,,,,
,,,,,253617,m,y,l,n,12,0,2025-04-04_11h06.44.039,VisualSearchFaces,2024.2.4,MacIntel,59.88023952,,,,,,,,453.7193,453.8343,453.8344,455.8345,block1,f,1,0,29,29,25,1,0,centre,neutral,no_target,0.9035,,,,,,,,,,,,,,,,,
,,,,,253617,m,y,l,n,12,0,2025-04-04_11h06.44.039,VisualSearchFaces,2024.2.4,MacIntel,59.88023952,,,,,,,,456.8357,456.9512,456.9513,458.9504,block1,f,1,0,30,30,23,1,0,bottom_left,neutral,no_target,0.5491,,,,,,,,,,,,,,,,,
,,,,,253617,m,y,l,n,12,0,2025-04-04_11h06.44.039,VisualSearchFaces,2024.2.4,MacIntel,59.88023952,,,,,,,,459.9516,460.0513,460.0514,462.0513,block1,j,1,0,31,31,2,1,1,top_right,neutral,friendly,0.5688,,,,,,,,,,,,,,,,,
,,,,,253617,m,y,l,n,12,0,2025-04-04_11h06.44.039,VisualSearchFaces,2024.2.4,MacIntel,59.88023952,,,,,,,,463.0528,463.1673,463.1673,465.1681,block1,j,1,0,32,32,16,1,1,top_left,threatening,neutral,0.4523,,,,,,,,,,,,,,,,,
,,,,,253617,m,y,l,n,12,0,2025-04-04_11h06.44.039,VisualSearchFaces,2024.2.4,MacIntel,59.88023952,,,,,,,,466.1692,466.2847,466.2848,468.2847,block1,j,1,0,33,33,8,1,1,bottom_left,neutral,threatening,0.4508,,,,,,,,,,,,,,,,,
,,,,,253617,m,y,l,n,12,0,2025-04-04_11h06.44.039,VisualSearchFaces,2024.2.4,MacIntel,59.88023952,,,,,,,,469.2859,469.4016,469.4017,471.4015,block1,j,1,0,34,34,3,1,1,bottom_left,neutral,friendly,0.3866,,,,,,,,,,,,,,,,,
,,,,,253617,m,y,l,n,12,0,2025-04-04_11h06.44.039,VisualSearchFaces,2024.2.4,MacIntel,59.88023952,,,,,,,,472.4027,472.5183,472.5183,474.5183,block1,j,1,0,35,35,9,1,1,bottom_right,neutral,threatening,0.3954,,,,,,,,,,,,,,,,,
,,,,,253617,m,y,l,n,12,0,2025-04-04_11h06.44.039,VisualSearchFaces,2024.2.4,MacIntel,59.88023952,,,,,,,,475.52,475.635,475.6351,477.6352,block1,j,1,0,36,36,10,1,1,centre,friendly,neutral,0.563,,,,,,,,,,,,,,,,,
,,,,,253617,m,y,l,n,12,0,2025-04-04_11h06.44.039,VisualSearchFaces,2024.2.4,MacIntel,59.88023952,,,,,,,,478.6363,478.7518,478.7519,480.7517,block1,f,1,0,37,37,31,1,0,top_left,friendly,no_target,0.5879,,,,,,,,,,,,,,,,,
,,,,,253617,m,y,l,n,12,0,2025-04-04_11h06.44.039,VisualSearchFaces,2024.2.4,MacIntel,59.88023952,,,,,,,,481.753,481.8685,481.8685,483.8686,block1,j,1,0,38,38,4,1,1,bottom_right,neutral,friendly,0.4953,,,,,,,,,,,,,,,,,
,,,,,253617,m,y,l,n,12,0,2025-04-04_11h06.44.039,VisualSearchFaces,2024.2.4,MacIntel,59.88023952,,,,,,,,484.8698,484.9853,484.9853,486.9852,block1,f,1,0,39,39,21,1,0,top_left,neutral,no_target,0.5794,,,,,,,,,,,,,,,,,
,,,,,253617,m,y,l,n,12,0,2025-04-04_11h06.44.039,VisualSearchFaces,2024.2.4,MacIntel,59.88023952,,,,,,,,487.9866,488.102,488.102,490.1021,block1,f,1,1,0,40,39,1,0,bottom_right,threatening,no_target,0.7522,,,,,,,,,,,,,,,,,
,,,,,253617,m,y,l,n,12,0,2025-04-04_11h06.44.039,VisualSearchFaces,2024.2.4,MacIntel,59.88023952,,,,,,,,491.1032,491.2021,491.2021,493.2023,block1,j,1,1,1,41,4,1,1,bottom_right,neutral,friendly,0.5545,,,,,,,,,,,,,,,,,
,,,,,253617,m,y,l,n,12,0,2025-04-04_11h06.44.039,VisualSearchFaces,2024.2.4,MacIntel,59.88023952,,,,,,,,494.2034,494.3189,494.3189,496.3188,block1,j,1,1,2,42,5,1,1,centre,neutral,threatening,0.5671,,,,,,,,,,,,,,,,,
,,,,,253617,m,y,l,n,12,0,2025-04-04_11h06.44.039,VisualSearchFaces,2024.2.4,MacIntel,59.88023952,,,,,,,,497.3201,497.4356,497.4356,499.4357,block1,j,1,1,3,43,0,1,1,centre,neutral,friendly,0.4131,,,,,,,,,,,,,,,,,
,,,,,253617,m,y,l,n,12,0,2025-04-04_11h06.44.039,VisualSearchFaces,2024.2.4,MacIntel,59.88023952,,,,,,,,500.4371,500.5523,500.5524,502.5524,block1,f,1,1,4,44,29,1,0,bottom_right,neutral,no_target,0.4787,,,,,,,,,,,,,,,,,
,,,,,253617,m,y,l,n,12,0,2025-04-04_11h06.44.039,VisualSearchFaces,2024.2.4,MacIntel,59.88023952,,,,,,,,503.5537,503.6691,503.6691,505.6691,block1,j,1,1,5,45,7,1,1,top_right,neutral,threatening,0.5671,,,,,,,,,,,,,,,,,
,,,,,253617,m,y,l,n,12,0,2025-04-04_11h06.44.039,VisualSearchFaces,2024.2.4,MacIntel,59.88023952,,,,,,,,506.6708,506.7859,506.786,508.7853,block1,j,1,1,6,46,10,1,1,centre,friendly,neutral,0.5636,,,,,,,,,,,,,,,,,
,,,,,253617,m,y,l,n,12,0,2025-04-04_11h06.44.039,VisualSearchFaces,2024.2.4,MacIntel,59.88023952,,,,,,,,509.7872,509.9026,509.9026,511.9027,block1,f,1,1,7,47,25,1,0,centre,neutral,no_target,0.5506,,,,,,,,,,,,,,,,,
,,,,,253617,m,y,l,n,12,0,2025-04-04_11h06.44.039,VisualSearchFaces,2024.2.4,MacIntel,59.88023952,,,,,,,,512.9036,513.0026,513.0027,515.0027,block1,f,1,1,8,48,20,1,0,centre,neutral,no_target,0.4336,,,,,,,,,,,,,,,,,
,,,,,253617,m,y,l,n,12,0,2025-04-04_11h06.44.039,VisualSearchFaces,2024.2.4,MacIntel,59.88023952,,,,,,,,516.0035,516.1027,516.1029,518.1028,block1,j,1,1,9,49,6,1,1,top_left,neutral,threatening,0.449,,,,,,,,,,,,,,,,,
,,,,,253617,m,y,l,n,12,0,2025-04-04_11h06.44.039,VisualSearchFaces,2024.2.4,MacIntel,59.88023952,,,,,,,,519.1042,519.219,519.219,521.2195,block1,f,1,1,10,50,35,1,0,centre,threatening,no_target,0.5855,,,,,,,,,,,,,,,,,
,,,,,253617,m,y,l,n,12,0,2025-04-04_11h06.44.039,VisualSearchFaces,2024.2.4,MacIntel,59.88023952,,,,,,,,522.2199,522.3364,522.3364,524.3367,block1,j,1,1,11,51,15,1,1,centre,threatening,neutral,0.6127,,,,,,,,,,,,,,,,,
,,,,,253617,m,y,l,n,12,0,2025-04-04_11h06.44.039,VisualSearchFaces,2024.2.4,MacIntel,59.88023952,,,,,,,,525.338,525.453,525.453,527.4532,block1,f,1,1,12,52,22,1,0,top_right,neutral,no_target,1.1691,,,,,,,,,,,,,,,,,
,,,,,253617,m,y,l,n,12,0,2025-04-04_11h06.44.039,VisualSearchFaces,2024.2.4,MacIntel,59.88023952,,,,,,,,528.4545,528.5532,528.5532,530.5535,block1,j,1,1,13,53,12,1,1,top_right,friendly,neutral,0.6355,,,,,,,,,,,,,,,,,
,,,,,253617,m,y,l,n,12,0,2025-04-04_11h06.44.039,VisualSearchFaces,2024.2.4,MacIntel,59.88023952,,,,,,,,531.5545,531.6532,531.6533,533.6533,block1,j,1,1,14,54,13,1,1,bottom_left,friendly,neutral,0.8183,,,,,,,,,,,,,,,,,
,,,,,253617,m,y,l,n,12,0,2025-04-04_11h06.44.039,VisualSearchFaces,2024.2.4,MacIntel,59.88023952,,,,,,,,534.6539,534.77,534.77,536.7691,block1,f,1,1,15,55,36,1,0,top_left,threatening,no_target,0.5664,,,,,,,,,,,,,,,,,
,,,,,253617,m,y,l,n,12,0,2025-04-04_11h06.44.039,VisualSearchFaces,2024.2.4,MacIntel,59.88023952,,,,,,,,537.7712,537.8868,537.8868,539.8867,block1,j,1,1,16,56,18,1,1,bottom_left,threatening,neutral,0.6506,,,,,,,,,,,,,,,,,
,,,,,253617,m,y,l,n,12,0,2025-04-04_11h06.44.039,VisualSearchFaces,2024.2.4,MacIntel,59.88023952,,,,,,,,540.8879,541.0041,541.0042,543.0036,block1,f,1,1,17,57,21,1,0,top_left,neutral,no_target,0.51,,,,,,,,,,,,,,,,,
,,,,,253617,m,y,l,n,12,0,2025-04-04_11h06.44.039,VisualSearchFaces,2024.2.4,MacIntel,59.88023952,,,,,,,,544.0047,544.1202,544.1202,546.1203,block1,j,1,1,18,58,17,1,1,top_right,threatening,neutral,0.5507,,,,,,,,,,,,,,,,,
,,,,,253617,m,y,l,n,12,0,2025-04-04_11h06.44.039,VisualSearchFaces,2024.2.4,MacIntel,59.88023952,,,,,,,,547.1218,547.2361,547.2361,549.2361,block1,f,1,1,19,59,23,1,0,bottom_left,neutral,no_target,0.5059,,,,,,,,,,,,,,,,,
,,,,,253617,m,y,l,n,12,0,2025-04-04_11h06.44.039,VisualSearchFaces,2024.2.4,MacIntel,59.88023952,,,,,,,,550.2383,550.3536,550.3536,552.3538,block1,j,1,1,20,60,3,1,1,bottom_left,neutral,friendly,0.4297,,,,,,,,,,,,,,,,,
,,,,,253617,m,y,l,n,12,0,2025-04-04_11h06.44.039,VisualSearchFaces,2024.2.4,MacIntel,59.88023952,,,,,,,,553.3552,553.4706,553.4706,555.4705,block1,j,1,1,21,61,11,1,1,top_left,friendly,neutral,0.4447,,,,,,,,,,,,,,,,,
,,,,,253617,m,y,l,n,12,0,2025-04-04_11h06.44.039,VisualSearchFaces,2024.2.4,MacIntel,59.88023952,,,,,,,,556.4712,556.5707,556.5707,558.5708,block1,j,1,1,22,62,19,1,1,bottom_right,threatening,neutral,0.5267,,,,,,,,,,,,,,,,,
,,,,,253617,m,y,l,n,12,0,2025-04-04_11h06.44.039,VisualSearchFaces,2024.2.4,MacIntel,59.88023952,,,,,,,,559.5719,559.6867,559.6867,561.6873,block1,f,0,1,23,63,1,1,1,top_left,neutral,friendly,0.3841,,,,,,,,,,,,,,,,,
,,,,,253617,m,y,l,n,12,0,2025-04-04_11h06.44.039,VisualSearchFaces,2024.2.4,MacIntel,59.88023952,,,,,,,,562.6888,562.8041,562.8041,564.8041,block1,f,1,1,24,64,28,1,0,bottom_left,neutral,no_target,0.5381,,,,,,,,,,,,,,,,,
,,,,,253617,m,y,l,n,12,0,2025-04-04_11h06.44.039,VisualSearchFaces,2024.2.4,MacIntel,59.88023952,,,,,,,,565.8051,565.9206,565.9207,567.9211,block1,f,1,1,25,65,32,1,0,top_right,friendly,no_target,0.6684,,,,,,,,,,,,,,,,,
,,,,,253617,m,y,l,n,12,0,2025-04-04_11h06.44.039,VisualSearchFaces,2024.2.4,MacIntel,59.88023952,,,,,,,,568.9223,569.0373,569.0374,571.0377,block1,j,1,1,26,66,16,1,1,top_left,threatening,neutral,0.5045,,,,,,,,,,,,,,,,,
,,,,,253617,m,y,l,n,12,0,2025-04-04_11h06.44.039,VisualSearchFaces,2024.2.4,MacIntel,59.88023952,,,,,,,,572.0381,572.1376,572.1376,574.1378,block1,j,1,1,27,67,8,1,1,bottom_left,neutral,threatening,0.6786,,,,,,,,,,,,,,,,,
,,,,,253617,m,y,l,n,12,0,2025-04-04_11h06.44.039,VisualSearchFaces,2024.2.4,MacIntel,59.88023952,,,,,,,,575.1389,575.2547,575.2547,577.2547,block1,j,1,1,28,68,2,1,1,top_right,neutral,friendly,0.4995,,,,,,,,,,,,,,,,,
,,,,,253617,m,y,l,n,12,0,2025-04-04_11h06.44.039,VisualSearchFaces,2024.2.4,MacIntel,59.88023952,,,,,,,,578.2559,578.3712,578.3712,580.3713,block1,j,1,1,29,69,14,1,1,bottom_right,friendly,neutral,0.5005,,,,,,,,,,,,,,,,,
,,,,,253617,m,y,l,n,12,0,2025-04-04_11h06.44.039,VisualSearchFaces,2024.2.4,MacIntel,59.88023952,,,,,,,,581.3716,581.4713,581.4713,583.4712,block1,f,1,1,30,70,38,1,0,bottom_left,threatening,no_target,1.4006,,,,,,,,,,,,,,,,,
,,,,,253617,m,y,l,n,12,0,2025-04-04_11h06.44.039,VisualSearchFaces,2024.2.4,MacIntel,59.88023952,,,,,,,,584.4719,584.588,584.588,586.5882,block1,f,1,1,31,71,27,1,0,top_right,neutral,no_target,0.7267,,,,,,,,,,,,,,,,,
,,,,,253617,m,y,l,n,12,0,2025-04-04_11h06.44.039,VisualSearchFaces,2024.2.4,MacIntel,59.88023952,,,,,,,,587.5892,587.7048,587.7049,589.7041,block1,f,1,1,32,72,33,1,0,bottom_left,friendly,no_target,0.5779,,,,,,,,,,,,,,,,,
,,,,,253617,m,y,l,n,12,0,2025-04-04_11h06.44.039,VisualSearchFaces,2024.2.4,MacIntel,59.88023952,,,,,,,,590.7059,590.8215,590.8216,592.8216,block1,f,1,1,33,73,24,1,0,bottom_right,neutral,no_target,0.6948,,,,,,,,,,,,,,,,,
,,,,,253617,m,y,l,n,12,0,2025-04-04_11h06.44.039,VisualSearchFaces,2024.2.4,MacIntel,59.88023952,,,,,,,,593.8227,593.9382,593.9382,595.9383,block1,j,1,1,34,74,9,1,1,bottom_right,neutral,threatening,0.55,,,,,,,,,,,,,,,,,
,,,,,253617,m,y,l,n,12,0,2025-04-04_11h06.44.039,VisualSearchFaces,2024.2.4,MacIntel,59.88023952,,,,,,,,596.9395,597.055,597.055,599.0551,block1,f,1,1,35,75,37,1,0,top_right,threatening,no_target,0.5358,,,,,,,,,,,,,,,,,
,,,,,253617,m,y,l,n,12,0,2025-04-04_11h06.44.039,VisualSearchFaces,2024.2.4,MacIntel,59.88023952,,,,,,,,600.0563,600.171,600.171,602.1718,block1,f,1,1,36,76,34,1,0,bottom_right,friendly,no_target,0.4684,,,,,,,,,,,,,,,,,
,,,,,253617,m,y,l,n,12,0,2025-04-04_11h06.44.039,VisualSearchFaces,2024.2.4,MacIntel,59.88023952,,,,,,,,603.1729,603.2886,603.2886,605.2886,block1,f,1,1,37,77,31,1,0,top_left,friendly,no_target,0.6621,,,,,,,,,,,,,,,,,
,,,,,253617,m,y,l,n,12,0,2025-04-04_11h06.44.039,VisualSearchFaces,2024.2.4,MacIntel,59.88023952,,,,,,,,606.2898,606.3886,606.3887,608.3887,block1,f,1,1,38,78,26,1,0,top_left,neutral,no_target,0.7556,,,,,,,,,,,,,,,,,
,,,,,253617,m,y,l,n,12,0,2025-04-04_11h06.44.039,VisualSearchFaces,2024.2.4,MacIntel,59.88023952,,,,,,,,609.3903,609.5054,609.5054,611.5057,block1,f,1,1,39,79,30,1,0,centre,friendly,no_target,0.5453,,,,,,,,,,,,,,,,,
,,,,,253617,m,y,l,n,12,0,2025-04-04_11h06.44.039,VisualSearchFaces,2024.2.4,MacIntel,59.88023952,,,632.8751,636.7899,space,3.9055,,637.7906,637.9061,637.9061,639.9061,block2,j,1,0,0,0,19,1,1,bottom_right,threatening,neutral,0.6939,,611.5102,632.8729,space,21.3246,,,,,,,,,,,,
,,,,,253617,m,y,l,n,12,0,2025-04-04_11h06.44.039,VisualSearchFaces,2024.2.4,MacIntel,59.88023952,,,,,,,,640.9072,641.0225,641.0225,643.0229,block2,f,1,0,1,1,39,1,0,bottom_right,threatening,no_target,0.5338,,,,,,,,,,,,,,,,,
,,,,,253617,m,y,l,n,12,0,2025-04-04_11h06.44.039,VisualSearchFaces,2024.2.4,MacIntel,59.88023952,,,,,,,,644.0241,644.1397,644.1397,646.1398,block2,j,1,0,2,2,12,1,1,top_right,friendly,neutral,0.8464,,,,,,,,,,,,,,,,,
,,,,,253617,m,y,l,n,12,0,2025-04-04_11h06.44.039,VisualSearchFaces,2024.2.4,MacIntel,59.88023952,,,,,,,,647.1413,647.2563,647.2563,649.2557,block2,j,1,0,3,3,10,1,1,centre,friendly,neutral,0.7042,,,,,,,,,,,,,,,,,
,,,,,253617,m,y,l,n,12,0,2025-04-04_11h06.44.039,VisualSearchFaces,2024.2.4,MacIntel,59.88023952,,,,,,,,650.2583,650.3732,650.3733,652.3732,block2,f,1,0,4,4,23,1,0,bottom_left,neutral,no_target,0.5097,,,,,,,,,,,,,,,,,
,,,,,253617,m,y,l,n,12,0,2025-04-04_11h06.44.039,VisualSearchFaces,2024.2.4,MacIntel,59.88023952,,,,,,,,653.374,653.4735,653.4735,655.4734,block2,j,1,0,5,5,4,1,1,bottom_right,neutral,friendly,0.9516,,,,,,,,,,,,,,,,,
,,,,,253617,m,y,l,n,12,0,2025-04-04_11h06.44.039,VisualSearchFaces,2024.2.4,MacIntel,59.88023952,,,,,,,,656.4745,656.5899,656.5899,658.5901,block2,f,1,0,6,6,35,1,0,centre,threatening,no_target,0.5836,,,,,,,,,,,,,,,,,
,,,,,253617,m,y,l,n,12,0,2025-04-04_11h06.44.039,VisualSearchFaces,2024.2.4,MacIntel,59.88023952,,,,,,,,659.5916,659.7059,659.7059,661.7068,block2,j,1,0,7,7,17,1,1,top_right,threatening,neutral,0.6626,,,,,,,,,,,,,,,,,
,,,,,253617,m,y,l,n,12,0,2025-04-04_11h06.44.039,VisualSearchFaces,2024.2.4,MacIntel,59.88023952,,,,,,,,662.7075,662.8069,662.807,664.8069,block2,f,1,0,8,8,37,1,0,top_right,threatening,no_target,0.5543,,,,,,,,,,,,,,,,,
,,,,,253617,m,y,l,n,12,0,2025-04-04_11h06.44.039,VisualSearchFaces,2024.2.4,MacIntel,59.88023952,,,,,,,,665.8079,665.907,665.907,667.9069,block2,j,1,0,9,9,13,1,1,bottom_left,friendly,neutral,0.6698,,,,,,,,,,,,,,,,,
,,,,,253617,m,y,l,n,12,0,2025-04-04_11h06.44.039,VisualSearchFaces,2024.2.4,MacIntel,59.88023952,,,,,,,,668.9082,669.0237,669.0238,671.0238,block2,f,1,0,10,10,33,1,0,bottom_left,friendly,no_target,0.6929,,,,,,,,,,,,,,,,,
,,,,,253617,m,y,l,n,12,0,2025-04-04_11h06.44.039,VisualSearchFaces,2024.2.4,MacIntel,59.88023952,,,,,,,,672.0252,672.1405,672.1405,674.1405,block2,f,1,0,11,11,32,1,0,top_right,friendly,no_target,1.0683,,,,,,,,,,,,,,,,,
,,,,,253617,m,y,l,n,12,0,2025-04-04_11h06.44.039,VisualSearchFaces,2024.2.4,MacIntel,59.88023952,,,,,,,,675.1415,675.2573,675.2573,677.2574,block2,f,1,0,12,12,27,1,0,top_right,neutral,no_target,0.8514,,,,,,,,,,,,,,,,,
,,,,,253617,m,y,l,n,12,0,2025-04-04_11h06.44.039,VisualSearchFaces,2024.2.4,MacIntel,59.88023952,,,,,,,,678.2584,678.3738,678.3738,680.374,block2,f,1,0,13,13,31,1,0,top_left,friendly,no_target,0.6677,,,,,,,,,,,,,,,,,
,,,,,253617,m,y,l,n,12,0,2025-04-04_11h06.44.039,VisualSearchFaces,2024.2.4,MacIntel,59.88023952,,,,,,,,681.3751,681.4906,681.4906,683.4909,block2,j,1,0,14,14,14,1,1,bottom_right,friendly,neutral,1.1166,,,,,,,,,,,,,,,,,
,,,,,253617,m,y,l,n,12,0,2025-04-04_11h06.44.039,VisualSearchFaces,2024.2.4,MacIntel,59.88023952,,,,,,,,684.492,684.6074,684.6074,686.6076,block2,j,1,0,15,15,8,1,1,bottom_left,neutral,threatening,0.8111,,,,,,,,,,,,,,,,,
,,,,,253617,m,y,l,n,12,0,2025-04-04_11h06.44.039,VisualSearchFaces,2024.2.4,MacIntel,59.88023952,,,,,,,,687.6091,687.7245,687.7245,689.7244,block2,f,1,0,16,16,26,1,0,top_left,neutral,no_target,0.9162,,,,,,,,,,,,,,,,,
,,,,,253617,m,y,l,n,12,0,2025-04-04_11h06.44.039,VisualSearchFaces,2024.2.4,MacIntel,59.88023952,,,,,,,,690.7257,690.841,690.841,692.8411,block2,j,1,0,17,17,1,1,1,top_left,neutral,friendly,0.7289,,,,,,,,,,,,,,,,,
,,,,,253617,m,y,l,n,12,0,2025-04-04_11h06.44.039,VisualSearchFaces,2024.2.4,MacIntel,59.88023952,,,,,,,,693.8422,693.9411,693.9411,695.9411,block2,f,1,0,18,18,20,1,0,centre,neutral,no_target,0.6361,,,,,,,,,,,,,,,,,
,,,,,253617,m,y,l,n,12,0,2025-04-04_11h06.44.039,VisualSearchFaces,2024.2.4,MacIntel,59.88023952,,,,,,,,696.9426,697.0411,697.0411,699.0413,block2,f,1,0,19,19,36,1,0,top_left,threatening,no_target,0.6439,,,,,,,,,,,,,,,,,
,,,,,253617,m,y,l,n,12,0,2025-04-04_11h06.44.039,VisualSearchFaces,2024.2.4,MacIntel,59.88023952,,,,,,,,700.0419,700.1579,700.1579,702.1573,block2,j,1,0,20,20,16,1,1,top_left,threatening,neutral,0.6691,,,,,,,,,,,,,,,,,
,,,,,253617,m,y,l,n,12,0,2025-04-04_11h06.44.039,VisualSearchFaces,2024.2.4,MacIntel,59.88023952,,,,,,,,703.1594,703.2747,703.2747,705.2748,block2,j,1,0,21,21,15,1,1,centre,threatening,neutral,0.6333,,,,,,,,,,,,,,,,,
,,,,,253617,m,y,l,n,12,0,2025-04-04_11h06.44.039,VisualSearchFaces,2024.2.4,MacIntel,59.88023952,,,,,,,,706.2762,706.3914,706.3914,708.3916,block2,j,1,0,22,22,7,1,1,top_right,neutral,threatening,0.6793,,,,,,,,,,,,,,,,,
,,,,,253617,m,y,l,n,12,0,2025-04-04_11h06.44.039,VisualSearchFaces,2024.2.4,MacIntel,59.88023952,,,,,,,,709.3924,709.4915,709.4916,711.4916,block2,f,1,0,23,23,22,1,0,top_right,neutral,no_target,0.8002,,,,,,,,,,,,,,,,,
,,,,,253617,m,y,l,n,12,0,2025-04-04_11h06.44.039,VisualSearchFaces,2024.2.4,MacIntel,59.88023952,,,,,,,,712.493,712.6082,712.6083,714.6084,block2,j,1,0,24,24,11,1,1,top_left,friendly,neutral,0.7116,,,,,,,,,,,,,,,,,
,,,,,253617,m,y,l,n,12,0,2025-04-04_11h06.44.039,VisualSearchFaces,2024.2.4,MacIntel,59.88023952,,,,,,,,715.6096,715.7251,715.7251,717.725,block2,f,1,0,25,25,30,1,0,centre,friendly,no_target,0.8524,,,,,,,,,,,,,,,,,
,,,,,253617,m,y,l,n,12,0,2025-04-04_11h06.44.039,VisualSearchFaces,2024.2.4,MacIntel,59.88023952,,,,,,,,718.7264,718.8418,718.8418,720.8419,block2,f,1,0,26,26,38,1,0,bottom_left,threatening,no_target,0.6444,,,,,,,,,,,,,,,,,
,,,,,253617,m,y,l,n,12,0,2025-04-04_11h06.44.039,VisualSearchFaces,2024.2.4,MacIntel,59.88023952,,,,,,,,721.8431,721.942,721.9421,723.942,block2,j,1,0,27,27,9,1,1,bottom_right,neutral,threatening,0.6682,,,,,,,,,,,,,,,,,
,,,,,253617,m,y,l,n,12,0,2025-04-04_11h06.44.039,VisualSearchFaces,2024.2.4,MacIntel,59.88023952,,,,,,,,724.9431,725.0587,725.0587,727.0586,block2,j,1,0,28,28,6,1,1,top_left,neutral,threatening,0.7836,,,,,,,,,,,,,,,,,
,,,,,253617,m,y,l,n,12,0,2025-04-04_11h06.44.039,VisualSearchFaces,2024.2.4,MacIntel,59.88023952,,,,,,,,728.059,728.1584,728.1584,730.1591,block2,j,1,0,29,29,3,1,1,bottom_left,neutral,friendly,0.5882,,,,,,,,,,,,,,,,,
,,,,,253617,m,y,l,n,12,0,2025-04-04_11h06.44.039,VisualSearchFaces,2024.2.4,MacIntel,59.88023952,,,,,,,,731.1603,731.2589,731.2589,733.2588,block2,j,1,0,30,30,2,1,1,top_right,neutral,friendly,0.7369,,,,,,,,,,,,,,,,,
,,,,,253617,m,y,l,n,12,0,2025-04-04_11h06.44.039,VisualSearchFaces,2024.2.4,MacIntel,59.88023952,,,,,,,,734.2602,734.3757,734.3757,736.3757,block2,f,1,0,31,31,34,1,0,bottom_right,friendly,no_target,0.5877,,,,,,,,,,,,,,,,,
,,,,,253617,m,y,l,n,12,0,2025-04-04_11h06.44.039,VisualSearchFaces,2024.2.4,MacIntel,59.88023952,,,,,,,,737.3764,737.4757,737.4757,739.4751,block2,f,1,0,32,32,29,1,0,bottom_right,neutral,no_target,0.6711,,,,,,,,,,,,,,,,,
,,,,,253617,m,y,l,n,12,0,2025-04-04_11h06.44.039,VisualSearchFaces,2024.2.4,MacIntel,59.88023952,,,,,,,,740.477,740.5923,740.5924,742.5921,block2,j,1,0,33,33,18,1,1,bottom_left,threatening,neutral,1.8298,,,,,,,,,,,,,,,,,
,,,,,253617,m,y,l,n,12,0,2025-04-04_11h06.44.039,VisualSearchFaces,2024.2.4,MacIntel,59.88023952,,,,,,,,743.594,743.7092,743.7092,745.7091,block2,j,1,0,34,34,5,1,1,centre,neutral,threatening,0.9188,,,,,,,,,,,,,,,,,
,,,,,253617,m,y,l,n,12,0,2025-04-04_11h06.44.039,VisualSearchFaces,2024.2.4,MacIntel,59.88023952,,,,,,,,746.7098,746.8093,746.8094,748.8092,block2,f,1,0,35,35,24,1,0,bottom_right,neutral,no_target,0.6027,,,,,,,,,,,,,,,,,
,,,,,253617,m,y,l,n,12,0,2025-04-04_11h06.44.039,VisualSearchFaces,2024.2.4,MacIntel,59.88023952,,,,,,,,749.8098,749.926,749.926,751.9262,block2,f,1,0,36,36,28,1,0,bottom_left,neutral,no_target,0.9462,,,,,,,,,,,,,,,,,
,,,,,253617,m,y,l,n,12,0,2025-04-04_11h06.44.039,VisualSearchFaces,2024.2.4,MacIntel,59.88023952,,,,,,,,752.9273,753.0419,753.042,755.0427,block2,f,1,0,37,37,25,1,0,centre,neutral,no_target,1.113,,,,,,,,,,,,,,,,,
,,,,,253617,m,y,l,n,12,0,2025-04-04_11h06.44.039,VisualSearchFaces,2024.2.4,MacIntel,59.88023952,,,,,,,,756.0442,756.1596,756.1596,758.1595,block2,f,1,0,38,38,21,1,0,top_left,neutral,no_target,1.0461,,,,,,,,,,,,,,,,,
,,,,,253617,m,y,l,n,12,0,2025-04-04_11h06.44.039,VisualSearchFaces,2024.2.4,MacIntel,59.88023952,,,,,,,,759.1607,759.2763,759.2763,761.2763,block2,j,1,0,39,39,0,1,1,centre,neutral,friendly,0.6289,,,,,,,,,,,,,,,,,
,,,,,253617,m,y,l,n,12,0,2025-04-04_11h06.44.039,VisualSearchFaces,2024.2.4,MacIntel,59.88023952,,,,,,,,762.2779,762.3923,762.3923,764.3932,block2,f,1,1,0,40,22,1,0,top_right,neutral,no_target,0.6186,,,,,,,,,,,,,,,,,
,,,,,253617,m,y,l,n,12,0,2025-04-04_11h06.44.039,VisualSearchFaces,2024.2.4,MacIntel,59.88023952,,,,,,,,765.3943,765.5098,765.5098,767.5099,block2,j,1,1,1,41,5,1,1,centre,neutral,threatening,0.686,,,,,,,,,,,,,,,,,
,,,,,253617,m,y,l,n,12,0,2025-04-04_11h06.44.039,VisualSearchFaces,2024.2.4,MacIntel,59.88023952,,,,,,,,768.5107,768.6101,768.6101,770.6102,block2,f,1,1,2,42,28,1,0,bottom_left,neutral,no_target,0.7939,,,,,,,,,,,,,,,,,
,,,,,253617,m,y,l,n,12,0,2025-04-04_11h06.44.039,VisualSearchFaces,2024.2.4,MacIntel,59.88023952,,,,,,,,771.6114,771.7267,771.7268,773.7268,block2,j,1,1,3,43,19,1,1,bottom_right,threatening,neutral,0.6526,,,,,,,,,,,,,,,,,
,,,,,253617,m,y,l,n,12,0,2025-04-04_11h06.44.039,VisualSearchFaces,2024.2.4,MacIntel,59.88023952,,,,,,,,774.7282,774.8437,774.8437,776.8436,block2,j,1,1,4,44,18,1,1,bottom_left,threatening,neutral,0.8334,,,,,,,,,,,,,,,,,
,,,,,253617,m,y,l,n,12,0,2025-04-04_11h06.44.039,VisualSearchFaces,2024.2.4,MacIntel,59.88023952,,,,,,,,777.8449,777.9602,777.9602,779.9594,block2,j,1,1,5,45,1,1,1,top_left,neutral,friendly,0.7849,,,,,,,,,,,,,,,,,
,,,,,253617,m,y,l,n,12,0,2025-04-04_11h06.44.039,VisualSearchFaces,2024.2.4,MacIntel,59.88023952,,,,,,,,780.9617,781.0768,781.0769,783.0769,block2,j,1,1,6,46,17,1,1,top_right,threatening,neutral,0.6543,,,,,,,,,,,,,,,,,
,,,,,253617,m,y,l,n,12,0,2025-04-04_11h06.44.039,VisualSearchFaces,2024.2.4,MacIntel,59.88023952,,,,,,,,784.0785,784.177,784.177,786.177,block2,j,1,1,7,47,13,1,1,bottom_left,friendly,neutral,0.6829,,,,,,,,,,,,,,,,,
,,,,,253617,m,y,l,n,12,0,2025-04-04_11h06.44.039,VisualSearchFaces,2024.2.4,MacIntel,59.88023952,,,,,,,,787.1794,787.2938,787.2938,789.2939,block2,f,1,1,8,48,21,1,0,top_left,neutral,no_target,0.626,,,,,,,,,,,,,,,,,
,,,,,253617,m,y,l,n,12,0,2025-04-04_11h06.44.039,VisualSearchFaces,2024.2.4,MacIntel,59.88023952,,,,,,,,790.2943,790.394,790.394,792.3938,block2,f,1,1,9,49,37,1,0,top_right,threatening,no_target,0.683,,,,,,,,,,,,,,,,,
,,,,,253617,m,y,l,n,12,0,2025-04-04_11h06.44.039,VisualSearchFaces,2024.2.4,MacIntel,59.88023952,,,,,,,,793.3949,793.5106,793.5106,795.5107,block2,f,1,1,10,50,32,1,0,top_right,friendly,no_target,0.5015,,,,,,,,,,,,,,,,,
,,,,,253617,m,y,l,n,12,0,2025-04-04_11h06.44.039,VisualSearchFaces,2024.2.4,MacIntel,59.88023952,,,,,,,,796.5119,796.6272,796.6272,798.6277,block2,j,1,1,11,51,3,1,1,bottom_left,neutral,friendly,0.8967,,,,,,,,,,,,,,,,,
,,,,,253617,m,y,l,n,12,0,2025-04-04_11h06.44.039,VisualSearchFaces,2024.2.4,MacIntel,59.88023952,,,,,,,,799.6289,799.7441,799.7442,801.7442,block2,j,1,1,12,52,11,1,1,top_left,friendly,neutral,0.6678,,,,,,,,,,,,,,,,,
,,,,,253617,m,y,l,n,12,0,2025-04-04_11h06.44.039,VisualSearchFaces,2024.2.4,MacIntel,59.88023952,,,,,,,,802.7459,802.8607,802.8607,804.8604,block2,f,1,1,13,53,38,1,0,bottom_left,threatening,no_target,1.0006,,,,,,,,,,,,,,,,,
,,,,,253617,m,y,l,n,12,0,2025-04-04_11h06.44.039,VisualSearchFaces,2024.2.4,MacIntel,59.88023952,,,,,,,,805.862,805.9609,805.9609,807.9612,block2,f,1,1,14,54,27,1,0,top_right,neutral,no_target,0.7279,,,,,,,,,,,,,,,,,
,,,,,253617,m,y,l,n,12,0,2025-04-04_11h06.44.039,VisualSearchFaces,2024.2.4,MacIntel,59.88023952,,,,,,,,808.9624,809.0777,809.0777,811.0777,block2,j,1,1,15,55,12,1,1,top_right,friendly,neutral,0.552,,,,,,,,,,,,,,,,,
,,,,,253617,m,y,l,n,12,0,2025-04-04_11h06.44.039,VisualSearchFaces,2024.2.4,MacIntel,59.88023952,,,,,,,,812.0788,812.1947,812.1947,814.1946,block2,f,1,1,16,56,31,1,0,top_left,friendly,no_target,0.7532,,,,,,,,,,,,,,,,,
,,,,,253617,m,y,l,n,12,0,2025-04-04_11h06.44.039,VisualSearchFaces,2024.2.4,MacIntel,59.88023952,,,,,,,,815.1956,815.2945,815.2946,817.2947,block2,j,1,1,17,57,7,1,1,top_right,neutral,threatening,1.3625,,,,,,,,,,,,,,,,,
,,,,,253617,m,y,l,n,12,0,2025-04-04_11h06.44.039,VisualSearchFaces,2024.2.4,MacIntel,59.88023952,,,,,,,,818.2955,818.3946,818.3946,820.3947,block2,f,1,1,18,58,24,1,0,bottom_right,neutral,no_target,0.6834,,,,,,,,,,,,,,,,,
,,,,,253617,m,y,l,n,12,0,2025-04-04_11h06.44.039,VisualSearchFaces,2024.2.4,MacIntel,59.88023952,,,,,,,,821.3958,821.4947,821.4947,823.4943,block2,f,1,1,19,59,25,1,0,centre,neutral,no_target,0.8488,,,,,,,,,,,,,,,,,
,,,,,253617,m,y,l,n,12,0,2025-04-04_11h06.44.039,VisualSearchFaces,2024.2.4,MacIntel,59.88023952,,,,,,,,824.4966,824.6115,824.6115,826.6113,block2,f,1,1,20,60,33,1,0,bottom_left,friendly,no_target,0.8018,,,,,,,,,,,,,,,,,
,,,,,253617,m,y,l,n,12,0,2025-04-04_11h06.44.039,VisualSearchFaces,2024.2.4,MacIntel,59.88023952,,,,,,,,827.6128,827.7283,827.7283,829.7284,block2,j,1,1,21,61,6,1,1,top_left,neutral,threatening,0.7287,,,,,,,,,,,,,,,,,
,,,,,253617,m,y,l,n,12,0,2025-04-04_11h06.44.039,VisualSearchFaces,2024.2.4,MacIntel,59.88023952,,,,,,,,830.7297,830.845,830.845,832.845,block2,j,1,1,22,62,8,1,1,bottom_left,neutral,threatening,0.5524,,,,,,,,,,,,,,,,,
,,,,,253617,m,y,l,n,12,0,2025-04-04_11h06.44.039,VisualSearchFaces,2024.2.4,MacIntel,59.88023952,,,,,,,,833.8464,833.9451,833.9452,835.945,block2,j,1,1,23,63,9,1,1,bottom_right,neutral,threatening,0.5667,,,,,,,,,,,,,,,,,
,,,,,253617,m,y,l,n,12,0,2025-04-04_11h06.44.039,VisualSearchFaces,2024.2.4,MacIntel,59.88023952,,,,,,,,836.9454,837.0451,837.0451,839.0452,block2,f,1,1,24,64,35,1,0,centre,threatening,no_target,0.9454,,,,,,,,,,,,,,,,,
,,,,,253617,m,y,l,n,12,0,2025-04-04_11h06.44.039,VisualSearchFaces,2024.2.4,MacIntel,59.88023952,,,,,,,,840.0459,840.1453,840.1453,842.1452,block2,f,1,1,25,65,26,1,0,top_left,neutral,no_target,0.599,,,,,,,,,,,,,,,,,
,,,,,253617,m,y,l,n,12,0,2025-04-04_11h06.44.039,VisualSearchFaces,2024.2.4,MacIntel,59.88023952,,,,,,,,843.1464,843.2453,843.2453,845.2453,block2,f,1,1,26,66,39,1,0,bottom_right,threatening,no_target,0.4755,,,,,,,,,,,,,,,,,
,,,,,253617,m,y,l,n,12,0,2025-04-04_11h06.44.039,VisualSearchFaces,2024.2.4,MacIntel,59.88023952,,,,,,,,846.2468,846.3621,846.3621,848.3623,block2,f,1,1,27,67,23,1,0,bottom_left,neutral,no_target,0.4191,,,,,,,,,,,,,,,,,
,,,,,253617,m,y,l,n,12,0,2025-04-04_11h06.44.039,VisualSearchFaces,2024.2.4,MacIntel,59.88023952,,,,,,,,849.3631,849.479,849.479,851.4791,block2,j,1,1,28,68,14,1,1,bottom_right,friendly,neutral,0.5827,,,,,,,,,,,,,,,,,
,,,,,253617,m,y,l,n,12,0,2025-04-04_11h06.44.039,VisualSearchFaces,2024.2.4,MacIntel,59.88023952,,,,,,,,852.4803,852.5947,852.5947,854.5956,block2,j,1,1,29,69,16,1,1,top_left,threatening,neutral,0.6031,,,,,,,,,,,,,,,,,
,,,,,253617,m,y,l,n,12,0,2025-04-04_11h06.44.039,VisualSearchFaces,2024.2.4,MacIntel,59.88023952,,,,,,,,855.5965,855.7125,855.7126,857.7127,block2,j,1,1,30,70,2,1,1,top_right,neutral,friendly,0.4326,,,,,,,,,,,,,,,,,
,,,,,253617,m,y,l,n,12,0,2025-04-04_11h06.44.039,VisualSearchFaces,2024.2.4,MacIntel,59.88023952,,,,,,,,858.7141,858.829,858.829,860.8281,block2,f,1,1,31,71,29,1,0,bottom_right,neutral,no_target,0.6012,,,,,,,,,,,,,,,,,
,,,,,253617,m,y,l,n,12,0,2025-04-04_11h06.44.039,VisualSearchFaces,2024.2.4,MacIntel,59.88023952,,,,,,,,861.829,861.929,861.9291,863.9292,block2,f,1,1,32,72,20,1,0,centre,neutral,no_target,0.5168,,,,,,,,,,,,,,,,,
,,,,,253617,m,y,l,n,12,0,2025-04-04_11h06.44.039,VisualSearchFaces,2024.2.4,MacIntel,59.88023952,,,,,,,,864.9299,865.0295,865.0295,867.0291,block2,j,1,1,33,73,0,1,1,centre,neutral,friendly,0.4667,,,,,,,,,,,,,,,,,
,,,,,253617,m,y,l,n,12,0,2025-04-04_11h06.44.039,VisualSearchFaces,2024.2.4,MacIntel,59.88023952,,,,,,,,868.03,868.1459,868.146,870.146,block2,f,1,1,34,74,36,1,0,top_left,threatening,no_target,0.5998,,,,,,,,,,,,,,,,,
,,,,,253617,m,y,l,n,12,0,2025-04-04_11h06.44.039,VisualSearchFaces,2024.2.4,MacIntel,59.88023952,,,,,,,,871.1465,871.2627,871.2627,873.263,block2,f,1,1,35,75,34,1,0,bottom_right,friendly,no_target,0.6769,,,,,,,,,,,,,,,,,
,,,,,253617,m,y,l,n,12,0,2025-04-04_11h06.44.039,VisualSearchFaces,2024.2.4,MacIntel,59.88023952,,,,,,,,874.2634,874.3795,874.3795,876.3795,block2,f,1,1,36,76,30,1,0,centre,friendly,no_target,0.4668,,,,,,,,,,,,,,,,,
,,,,,253617,m,y,l,n,12,0,2025-04-04_11h06.44.039,VisualSearchFaces,2024.2.4,MacIntel,59.88023952,,,,,,,,877.3803,877.4965,877.4965,879.4964,block2,j,1,1,37,77,15,1,1,centre,threatening,neutral,0.6375,,,,,,,,,,,,,,,,,
,,,,,253617,m,y,l,n,12,0,2025-04-04_11h06.44.039,VisualSearchFaces,2024.2.4,MacIntel,59.88023952,,,,,,,,880.4979,880.6129,880.6129,882.6131,block2,j,1,1,38,78,10,1,1,centre,friendly,neutral,1.3692,,,,,,,,,,,,,,,,,
,,,,,253617,m,y,l,n,12,0,2025-04-04_11h06.44.039,VisualSearchFaces,2024.2.4,MacIntel,59.88023952,,,,,,,,883.6134,883.7131,883.7131,885.713,block2,j,1,1,39,79,4,1,1,bottom_right,neutral,friendly,0.702,,,,,,,,,,,,,,,,,
,,,,,253617,m,y,l,n,12,0,2025-04-04_11h06.44.039,VisualSearchFaces,2024.2.4,MacIntel,59.88023952,,,909.2003,913.864,space,4.6388,,914.8652,914.9805,914.9805,916.9805,block3,j,1,0,0,0,16,1,1,top_left,threatening,neutral,0.5868,,885.7153,909.1979,space,23.4609,,,,,,,,,,,,
,,,,,253617,m,y,l,n,12,0,2025-04-04_11h06.44.039,VisualSearchFaces,2024.2.4,MacIntel,59.88023952,,,,,,,,917.9815,918.0974,918.0974,920.0974,block3,f,1,0,1,1,39,1,0,bottom_right,threatening,no_target,0.4968,,,,,,,,,,,,,,,,,
,,,,,253617,m,y,l,n,12,0,2025-04-04_11h06.44.039,VisualSearchFaces,2024.2.4,MacIntel,59.88023952,,,,,,,,921.0983,921.214,921.214,923.214,block3,j,1,0,2,2,4,1,1,bottom_right,neutral,friendly,0.7305,,,,,,,,,,,,,,,,,
,,,,,253617,m,y,l,n,12,0,2025-04-04_11h06.44.039,VisualSearchFaces,2024.2.4,MacIntel,59.88023952,,,,,,,,924.2146,924.3307,924.3308,926.3303,block3,f,1,0,3,3,27,1,0,top_right,neutral,no_target,0.662,,,,,,,,,,,,,,,,,
,,,,,253617,m,y,l,n,12,0,2025-04-04_11h06.44.039,VisualSearchFaces,2024.2.4,MacIntel,59.88023952,,,,,,,,927.3313,927.4304,927.4304,929.4302,block3,f,1,0,4,4,34,1,0,bottom_right,friendly,no_target,0.5293,,,,,,,,,,,,,,,,,
,,,,,253617,m,y,l,n,12,0,2025-04-04_11h06.44.039,VisualSearchFaces,2024.2.4,MacIntel,59.88023952,,,,,,,,930.4319,930.5475,930.5475,932.5476,block3,j,1,0,5,5,18,1,1,bottom_left,threatening,neutral,0.7798,,,,,,,,,,,,,,,,,
,,,,,253617,m,y,l,n,12,0,2025-04-04_11h06.44.039,VisualSearchFaces,2024.2.4,MacIntel,59.88023952,,,,,,,,933.5494,933.6635,933.6636,935.6644,block3,f,1,0,6,6,30,1,0,centre,friendly,no_target,0.4879,,,,,,,,,,,,,,,,,
,,,,,253617,m,y,l,n,12,0,2025-04-04_11h06.44.039,VisualSearchFaces,2024.2.4,MacIntel,59.88023952,,,,,,,,936.6659,936.7811,936.7812,938.7814,block3,f,1,0,7,7,25,1,0,centre,neutral,no_target,1.062,,,,,,,,,,,,,,,,,
,,,,,253617,m,y,l,n,12,0,2025-04-04_11h06.44.039,VisualSearchFaces,2024.2.4,MacIntel,59.88023952,,,,,,,,939.7831,939.8979,939.8979,941.8979,block3,j,1,0,8,8,9,1,1,bottom_right,neutral,threatening,0.5112,,,,,,,,,,,,,,,,,
,,,,,253617,m,y,l,n,12,0,2025-04-04_11h06.44.039,VisualSearchFaces,2024.2.4,MacIntel,59.88023952,,,,,,,,942.899,942.998,942.998,944.9981,block3,f,1,0,9,9,23,1,0,bottom_left,neutral,no_target,0.5213,,,,,,,,,,,,,,,,,
,,,,,253617,m,y,l,n,12,0,2025-04-04_11h06.44.039,VisualSearchFaces,2024.2.4,MacIntel,59.88023952,,,,,,,,945.9993,946.1147,946.1147,948.1148,block3,j,1,0,10,10,14,1,1,bottom_right,friendly,neutral,0.5343,,,,,,,,,,,,,,,,,
,,,,,253617,m,y,l,n,12,0,2025-04-04_11h06.44.039,VisualSearchFaces,2024.2.4,MacIntel,59.88023952,,,,,,,,949.1159,949.2314,949.2314,951.2315,block3,f,1,0,11,11,22,1,0,top_right,neutral,no_target,0.7001,,,,,,,,,,,,,,,,,
,,,,,253617,m,y,l,n,12,0,2025-04-04_11h06.44.039,VisualSearchFaces,2024.2.4,MacIntel,59.88023952,,,,,,,,952.2326,952.3482,952.3483,954.3483,block3,j,1,0,12,12,2,1,1,top_right,neutral,friendly,0.6352,,,,,,,,,,,,,,,,,
,,,,,253617,m,y,l,n,12,0,2025-04-04_11h06.44.039,VisualSearchFaces,2024.2.4,MacIntel,59.88023952,,,,,,,,955.3487,955.4642,955.4642,957.465,block3,j,1,0,13,13,13,1,1,bottom_left,friendly,neutral,0.6009,,,,,,,,,,,,,,,,,
,,,,,253617,m,y,l,n,12,0,2025-04-04_11h06.44.039,VisualSearchFaces,2024.2.4,MacIntel,59.88023952,,,,,,,,958.4665,958.5809,958.5809,960.5818,block3,j,1,0,14,14,10,1,1,centre,friendly,neutral,0.6032,,,,,,,,,,,,,,,,,
,,,,,253617,m,y,l,n,12,0,2025-04-04_11h06.44.039,VisualSearchFaces,2024.2.4,MacIntel,59.88023952,,,,,,,,961.5831,961.6985,961.6985,963.6985,block3,f,1,0,15,15,28,1,0,bottom_left,neutral,no_target,0.5504,,,,,,,,,,,,,,,,,
,,,,,253617,m,y,l,n,12,0,2025-04-04_11h06.44.039,VisualSearchFaces,2024.2.4,MacIntel,59.88023952,,,,,,,,964.6999,964.7988,964.7988,966.7989,block3,f,1,0,16,16,24,1,0,bottom_right,neutral,no_target,0.4665,,,,,,,,,,,,,,,,,
,,,,,253617,m,y,l,n,12,0,2025-04-04_11h06.44.039,VisualSearchFaces,2024.2.4,MacIntel,59.88023952,,,,,,,,967.8002,967.9155,967.9155,969.9155,block3,j,1,0,17,17,15,1,1,centre,threatening,neutral,0.5175,,,,,,,,,,,,,,,,,
,,,,,253617,m,y,l,n,12,0,2025-04-04_11h06.44.039,VisualSearchFaces,2024.2.4,MacIntel,59.88023952,,,,,,,,970.9159,971.032,971.032,973.0321,block3,f,1,0,18,18,29,1,0,bottom_right,neutral,no_target,0.6173,,,,,,,,,,,,,,,,,
,,,,,253617,m,y,l,n,12,0,2025-04-04_11h06.44.039,VisualSearchFaces,2024.2.4,MacIntel,59.88023952,,,,,,,,974.0327,974.1324,974.1324,976.1317,block3,j,1,0,19,19,5,1,1,centre,neutral,threatening,0.4498,,,,,,,,,,,,,,,,,
,,,,,253617,m,y,l,n,12,0,2025-04-04_11h06.44.039,VisualSearchFaces,2024.2.4,MacIntel,59.88023952,,,,,,,,977.1337,977.248,977.248,979.249,block3,f,1,0,20,20,38,1,0,bottom_left,threatening,no_target,1.4669,,,,,,,,,,,,,,,,,
,,,,,253617,m,y,l,n,12,0,2025-04-04_11h06.44.039,VisualSearchFaces,2024.2.4,MacIntel,59.88023952,,,,,,,,980.2498,980.349,980.3491,982.3492,block3,j,1,0,21,21,12,1,1,top_right,friendly,neutral,0.6444,,,,,,,,,,,,,,,,,
,,,,,253617,m,y,l,n,12,0,2025-04-04_11h06.44.039,VisualSearchFaces,2024.2.4,MacIntel,59.88023952,,,,,,,,983.3502,983.4648,983.4648,985.4659,block3,f,1,0,22,22,36,1,0,top_left,threatening,no_target,0.7687,,,,,,,,,,,,,,,,,
,,,,,253617,m,y,l,n,12,0,2025-04-04_11h06.44.039,VisualSearchFaces,2024.2.4,MacIntel,59.88023952,,,,,,,,986.4677,986.5825,986.5825,988.5825,block3,j,1,0,23,23,11,1,1,top_left,friendly,neutral,0.4343,,,,,,,,,,,,,,,,,
,,,,,253617,m,y,l,n,12,0,2025-04-04_11h06.44.039,VisualSearchFaces,2024.2.4,MacIntel,59.88023952,,,,,,,,989.5832,989.6826,989.6826,991.6826,block3,j,1,0,24,24,7,1,1,top_right,neutral,threatening,0.6468,,,,,,,,,,,,,,,,,
,,,,,253617,m,y,l,n,12,0,2025-04-04_11h06.44.039,VisualSearchFaces,2024.2.4,MacIntel,59.88023952,,,,,,,,992.6841,992.7994,992.7995,994.7995,block3,j,1,0,25,25,3,1,1,bottom_left,neutral,friendly,0.8164,,,,,,,,,,,,,,,,,
,,,,,253617,m,y,l,n,12,0,2025-04-04_11h06.44.039,VisualSearchFaces,2024.2.4,MacIntel,59.88023952,,,,,,,,995.8007,995.9153,995.9153,997.9161,block3,j,1,0,26,26,19,1,1,bottom_right,threatening,neutral,0.7028,,,,,,,,,,,,,,,,,
,,,,,253617,m,y,l,n,12,0,2025-04-04_11h06.44.039,VisualSearchFaces,2024.2.4,MacIntel,59.88023952,,,,,,,,998.9177,999.033,999.033,1001.0329,block3,f,1,0,27,27,37,1,0,top_right,threatening,no_target,0.8107,,,,,,,,,,,,,,,,,
,,,,,253617,m,y,l,n,12,0,2025-04-04_11h06.44.039,VisualSearchFaces,2024.2.4,MacIntel,59.88023952,,,,,,,,1002.0341,1002.1496,1002.1496,1004.1497,block3,j,1,0,28,28,1,1,1,top_left,neutral,friendly,0.5282,,,,,,,,,,,,,,,,,
,,,,,253617,m,y,l,n,12,0,2025-04-04_11h06.44.039,VisualSearchFaces,2024.2.4,MacIntel,59.88023952,,,,,,,,1005.1511,1005.2664,1005.2664,1007.266,block3,j,1,0,29,29,8,1,1,bottom_left,neutral,threatening,0.5189,,,,,,,,,,,,,,,,,
,,,,,253617,m,y,l,n,12,0,2025-04-04_11h06.44.039,VisualSearchFaces,2024.2.4,MacIntel,59.88023952,,,,,,,,1008.2681,1008.3832,1008.3832,1010.3832,block3,f,1,0,30,30,26,1,0,top_left,neutral,no_target,0.4291,,,,,,,,,,,,,,,,,
,,,,,253617,m,y,l,n,12,0,2025-04-04_11h06.44.039,VisualSearchFaces,2024.2.4,MacIntel,59.88023952,,,,,,,,1011.3847,1011.5,1011.5,1013.5,block3,j,0,0,31,31,31,1,0,top_left,friendly,no_target,0.5016,,,,,,,,,,,,,,,,,
,,,,,253617,m,y,l,n,12,0,2025-04-04_11h06.44.039,VisualSearchFaces,2024.2.4,MacIntel,59.88023952,,,,,,,,1014.5012,1014.6166,1014.6167,1016.6167,block3,j,1,0,32,32,17,1,1,top_right,threatening,neutral,0.6344,,,,,,,,,,,,,,,,,
,,,,,253617,m,y,l,n,12,0,2025-04-04_11h06.44.039,VisualSearchFaces,2024.2.4,MacIntel,59.88023952,,,,,,,,1017.6181,1017.7335,1017.7335,1019.7335,block3,f,1,0,33,33,35,1,0,centre,threatening,no_target,0.7498,,,,,,,,,,,,,,,,,
,,,,,253617,m,y,l,n,12,0,2025-04-04_11h06.44.039,VisualSearchFaces,2024.2.4,MacIntel,59.88023952,,,,,,,,1020.7347,1020.8501,1020.8502,1022.8502,block3,f,1,0,34,34,20,1,0,centre,neutral,no_target,0.4877,,,,,,,,,,,,,,,,,
,,,,,253617,m,y,l,n,12,0,2025-04-04_11h06.44.039,VisualSearchFaces,2024.2.4,MacIntel,59.88023952,,,,,,,,1023.8518,1023.967,1023.967,1025.967,block3,f,1,0,35,35,21,1,0,top_left,neutral,no_target,0.6107,,,,,,,,,,,,,,,,,
,,,,,253617,m,y,l,n,12,0,2025-04-04_11h06.44.039,VisualSearchFaces,2024.2.4,MacIntel,59.88023952,,,,,,,,1026.9681,1027.0838,1027.0838,1029.0838,block3,j,1,0,36,36,6,1,1,top_left,neutral,threatening,0.5497,,,,,,,,,,,,,,,,,
,,,,,253617,m,y,l,n,12,0,2025-04-04_11h06.44.039,VisualSearchFaces,2024.2.4,MacIntel,59.88023952,,,,,,,,1030.0851,1030.2005,1030.2005,1032.2005,block3,f,1,0,37,37,33,1,0,bottom_left,friendly,no_target,0.9,,,,,,,,,,,,,,,,,
,,,,,253617,m,y,l,n,12,0,2025-04-04_11h06.44.039,VisualSearchFaces,2024.2.4,MacIntel,59.88023952,,,,,,,,1033.2018,1033.3006,1033.3006,1035.2999,block3,j,1,0,38,38,0,1,1,centre,neutral,friendly,0.8003,,,,,,,,,,,,,,,,,
,,,,,253617,m,y,l,n,12,0,2025-04-04_11h06.44.039,VisualSearchFaces,2024.2.4,MacIntel,59.88023952,,,,,,,,1036.3022,1036.4167,1036.4167,1038.4175,block3,f,1,0,39,39,32,1,0,top_right,friendly,no_target,1.0971,,,,,,,,,,,,,,,,,
,,,,,253617,m,y,l,n,12,0,2025-04-04_11h06.44.039,VisualSearchFaces,2024.2.4,MacIntel,59.88023952,,,,,,,,1039.4186,1039.534,1039.534,1041.5341,block3,j,1,1,0,40,7,1,1,top_right,neutral,threatening,0.6998,,,,,,,,,,,,,,,,,
,,,,,253617,m,y,l,n,12,0,2025-04-04_11h06.44.039,VisualSearchFaces,2024.2.4,MacIntel,59.88023952,,,,,,,,1042.5357,1042.6509,1042.651,1044.651,block3,j,1,1,1,41,11,1,1,top_left,friendly,neutral,0.8452,,,,,,,,,,,,,,,,,
,,,,,253617,m,y,l,n,12,0,2025-04-04_11h06.44.039,VisualSearchFaces,2024.2.4,MacIntel,59.88023952,,,,,,,,1045.6521,1045.751,1045.751,1047.7511,block3,j,1,1,2,42,8,1,1,bottom_left,neutral,threatening,0.6363,,,,,,,,,,,,,,,,,
,,,,,253617,m,y,l,n,12,0,2025-04-04_11h06.44.039,VisualSearchFaces,2024.2.4,MacIntel,59.88023952,,,,,,,,1048.7522,1048.8511,1048.8511,1050.8511,block3,f,1,1,3,43,28,1,0,bottom_left,neutral,no_target,0.5278,,,,,,,,,,,,,,,,,
,,,,,253617,m,y,l,n,12,0,2025-04-04_11h06.44.039,VisualSearchFaces,2024.2.4,MacIntel,59.88023952,,,,,,,,1051.8523,1051.9678,1051.9679,1053.9678,block3,f,1,1,4,44,25,1,0,centre,neutral,no_target,0.5164,,,,,,,,,,,,,,,,,
,,,,,253617,m,y,l,n,12,0,2025-04-04_11h06.44.039,VisualSearchFaces,2024.2.4,MacIntel,59.88023952,,,,,,,,1054.9685,1055.0844,1055.0844,1057.0846,block3,j,1,1,5,45,12,1,1,top_right,friendly,neutral,0.4013,,,,,,,,,,,,,,,,,
,,,,,253617,m,y,l,n,12,0,2025-04-04_11h06.44.039,VisualSearchFaces,2024.2.4,MacIntel,59.88023952,,,,,,,,1058.0858,1058.2013,1058.2013,1060.2013,block3,f,1,1,6,46,26,1,0,top_left,neutral,no_target,0.6098,,,,,,,,,,,,,,,,,
,,,,,253617,m,y,l,n,12,0,2025-04-04_11h06.44.039,VisualSearchFaces,2024.2.4,MacIntel,59.88023952,,,,,,,,1061.203,1061.3181,1061.3181,1063.3182,block3,f,1,1,7,47,37,1,0,top_right,threatening,no_target,0.9008,,,,,,,,,,,,,,,,,
,,,,,253617,m,y,l,n,12,0,2025-04-04_11h06.44.039,VisualSearchFaces,2024.2.4,MacIntel,59.88023952,,,,,,,,1064.3188,1064.4182,1064.4182,1066.4176,block3,f,1,1,8,48,35,1,0,centre,threatening,no_target,0.7998,,,,,,,,,,,,,,,,,
,,,,,253617,m,y,l,n,12,0,2025-04-04_11h06.44.039,VisualSearchFaces,2024.2.4,MacIntel,59.88023952,,,,,,,,1067.4196,1067.535,1067.535,1069.535,block3,j,1,1,9,49,18,1,1,bottom_left,threatening,neutral,0.4447,,,,,,,,,,,,,,,,,
,,,,,253617,m,y,l,n,12,0,2025-04-04_11h06.44.039,VisualSearchFaces,2024.2.4,MacIntel,59.88023952,,,,,,,,1070.5363,1070.6507,1070.6508,1072.6516,block3,f,1,1,10,50,36,1,0,top_left,threatening,no_target,0.5302,,,,,,,,,,,,,,,,,
,,,,,253617,m,y,l,n,12,0,2025-04-04_11h06.44.039,VisualSearchFaces,2024.2.4,MacIntel,59.88023952,,,,,,,,1073.6533,1073.7685,1073.7685,1075.7686,block3,f,1,1,11,51,22,1,0,top_right,neutral,no_target,0.5455,,,,,,,,,,,,,,,,,
,,,,,253617,m,y,l,n,12,0,2025-04-04_11h06.44.039,VisualSearchFaces,2024.2.4,MacIntel,59.88023952,,,,,,,,1076.7697,1076.8852,1076.8852,1078.8852,block3,j,1,1,12,52,3,1,1,bottom_left,neutral,friendly,0.395,,,,,,,,,,,,,,,,,
,,,,,253617,m,y,l,n,12,0,2025-04-04_11h06.44.039,VisualSearchFaces,2024.2.4,MacIntel,59.88023952,,,,,,,,1079.8867,1080.002,1080.002,1082.002,block3,f,1,1,13,53,27,1,0,top_right,neutral,no_target,0.4658,,,,,,,,,,,,,,,,,
,,,,,253617,m,y,l,n,12,0,2025-04-04_11h06.44.039,VisualSearchFaces,2024.2.4,MacIntel,59.88023952,,,,,,,,1083.0032,1083.1187,1083.1187,1085.1188,block3,j,1,1,14,54,17,1,1,top_right,threatening,neutral,0.5345,,,,,,,,,,,,,,,,,
,,,,,253617,m,y,l,n,12,0,2025-04-04_11h06.44.039,VisualSearchFaces,2024.2.4,MacIntel,59.88023952,,,,,,,,1086.1202,1086.2355,1086.2355,1088.2355,block3,j,1,1,15,55,10,1,1,centre,friendly,neutral,0.8829,,,,,,,,,,,,,,,,,
,,,,,253617,m,y,l,n,12,0,2025-04-04_11h06.44.039,VisualSearchFaces,2024.2.4,MacIntel,59.88023952,,,,,,,,1089.2364,1089.3356,1089.3356,1091.3357,block3,j,1,1,16,56,6,1,1,top_left,neutral,threatening,0.7319,,,,,,,,,,,,,,,,,
,,,,,253617,m,y,l,n,12,0,2025-04-04_11h06.44.039,VisualSearchFaces,2024.2.4,MacIntel,59.88023952,,,,,,,,1092.3367,1092.4356,1092.4357,1094.4358,block3,f,1,1,17,57,39,1,0,bottom_right,threatening,no_target,0.5522,,,,,,,,,,,,,,,,,
,,,,,253617,m,y,l,n,12,0,2025-04-04_11h06.44.039,VisualSearchFaces,2024.2.4,MacIntel,59.88023952,,,,,,,,1095.4365,1095.5357,1095.5357,1097.5353,block3,j,0,1,18,58,20,1,0,centre,neutral,no_target,1.6505,,,,,,,,,,,,,,,,,
,,,,,253617,m,y,l,n,12,0,2025-04-04_11h06.44.039,VisualSearchFaces,2024.2.4,MacIntel,59.88023952,,,,,,,,1098.537,1098.6525,1098.6526,1100.6527,block3,j,1,1,19,59,1,1,1,top_left,neutral,friendly,0.7353,,,,,,,,,,,,,,,,,
,,,,,253617,m,y,l,n,12,0,2025-04-04_11h06.44.039,VisualSearchFaces,2024.2.4,MacIntel,59.88023952,,,,,,,,1101.6531,1101.7692,1101.7692,1103.7694,block3,j,1,1,20,60,16,1,1,top_left,threatening,neutral,0.5834,,,,,,,,,,,,,,,,,
,,,,,253617,m,y,l,n,12,0,2025-04-04_11h06.44.039,VisualSearchFaces,2024.2.4,MacIntel,59.88023952,,,,,,,,1104.771,1104.886,1104.886,1106.8851,block3,j,1,1,21,61,4,1,1,bottom_right,neutral,friendly,0.7156,,,,,,,,,,,,,,,,,
,,,,,253617,m,y,l,n,12,0,2025-04-04_11h06.44.039,VisualSearchFaces,2024.2.4,MacIntel,59.88023952,,,,,,,,1107.8869,1107.9861,1107.9861,1109.9863,block3,f,1,1,22,62,34,1,0,bottom_right,friendly,no_target,1.4181,,,,,,,,,,,,,,,,,
,,,,,253617,m,y,l,n,12,0,2025-04-04_11h06.44.039,VisualSearchFaces,2024.2.4,MacIntel,59.88023952,,,,,,,,1110.9874,1111.1029,1111.1029,1113.103,block3,f,1,1,23,63,38,1,0,bottom_left,threatening,no_target,0.5951,,,,,,,,,,,,,,,,,
,,,,,253617,m,y,l,n,12,0,2025-04-04_11h06.44.039,VisualSearchFaces,2024.2.4,MacIntel,59.88023952,,,,,,,,1114.1034,1114.2029,1114.203,1116.203,block3,f,1,1,24,64,30,1,0,centre,friendly,no_target,1.2838,,,,,,,,,,,,,,,,,
,,,,,253617,m,y,l,n,12,0,2025-04-04_11h06.44.039,VisualSearchFaces,2024.2.4,MacIntel,59.88023952,,,,,,,,1117.2042,1117.3198,1117.3198,1119.3199,block3,j,1,1,25,65,9,1,1,bottom_right,neutral,threatening,0.6501,,,,,,,,,,,,,,,,,
,,,,,253617,m,y,l,n,12,0,2025-04-04_11h06.44.039,VisualSearchFaces,2024.2.4,MacIntel,59.88023952,,,,,,,,1120.32,1120.4197,1120.4197,1122.4199,block3,j,1,1,26,66,5,1,1,centre,neutral,threatening,0.8332,,,,,,,,,,,,,,,,,
,,,,,253617,m,y,l,n,12,0,2025-04-04_11h06.44.039,VisualSearchFaces,2024.2.4,MacIntel,59.88023952,,,,,,,,1123.4207,1123.52,1123.52,1125.5201,block3,j,1,1,27,67,19,1,1,bottom_right,threatening,neutral,0.6363,,,,,,,,,,,,,,,,,
,,,,,253617,m,y,l,n,12,0,2025-04-04_11h06.44.039,VisualSearchFaces,2024.2.4,MacIntel,59.88023952,,,,,,,,1126.5213,1126.6366,1126.6366,1128.6366,block3,f,1,1,28,68,32,1,0,top_right,friendly,no_target,0.5449,,,,,,,,,,,,,,,,,
,,,,,253617,m,y,l,n,12,0,2025-04-04_11h06.44.039,VisualSearchFaces,2024.2.4,MacIntel,59.88023952,,,,,,,,1129.6382,1129.7526,1129.7526,1131.7536,block3,j,1,1,29,69,13,1,1,bottom_left,friendly,neutral,0.5958,,,,,,,,,,,,,,,,,
,,,,,253617,m,y,l,n,12,0,2025-04-04_11h06.44.039,VisualSearchFaces,2024.2.4,MacIntel,59.88023952,,,,,,,,1132.7547,1132.8702,1132.8702,1134.8703,block3,f,1,1,30,70,21,1,0,top_left,neutral,no_target,0.5512,,,,,,,,,,,,,,,,,
,,,,,253617,m,y,l,n,12,0,2025-04-04_11h06.44.039,VisualSearchFaces,2024.2.4,MacIntel,59.88023952,,,,,,,,1135.8704,1135.986,1135.986,1137.9871,block3,j,1,1,31,71,15,1,1,centre,threatening,neutral,0.5706,,,,,,,,,,,,,,,,,
,,,,,253617,m,y,l,n,12,0,2025-04-04_11h06.44.039,VisualSearchFaces,2024.2.4,MacIntel,59.88023952,,,,,,,,1138.9883,1139.1037,1139.1037,1141.1037,block3,f,1,1,32,72,33,1,0,bottom_left,friendly,no_target,0.6532,,,,,,,,,,,,,,,,,
,,,,,253617,m,y,l,n,12,0,2025-04-04_11h06.44.039,VisualSearchFaces,2024.2.4,MacIntel,59.88023952,,,,,,,,1142.1053,1142.2194,1142.2195,1144.2204,block3,j,1,1,33,73,2,1,1,top_right,neutral,friendly,0.4451,,,,,,,,,,,,,,,,,
,,,,,253617,m,y,l,n,12,0,2025-04-04_11h06.44.039,VisualSearchFaces,2024.2.4,MacIntel,59.88023952,,,,,,,,1145.2216,1145.3372,1145.3373,1147.3375,block3,f,1,1,34,74,24,1,0,bottom_right,neutral,no_target,0.7166,,,,,,,,,,,,,,,,,
,,,,,253617,m,y,l,n,12,0,2025-04-04_11h06.44.039,VisualSearchFaces,2024.2.4,MacIntel,59.88023952,,,,,,,,1148.3388,1148.454,1148.454,1150.4541,block3,f,1,1,35,75,31,1,0,top_left,friendly,no_target,0.6437,,,,,,,,,,,,,,,,,
,,,,,253617,m,y,l,n,12,0,2025-04-04_11h06.44.039,VisualSearchFaces,2024.2.4,MacIntel,59.88023952,,,,,,,,1151.4542,1151.554,1151.554,1153.5537,block3,f,1,1,36,76,23,1,0,bottom_left,neutral,no_target,0.6178,,,,,,,,,,,,,,,,,
,,,,,253617,m,y,l,n,12,0,2025-04-04_11h06.44.039,VisualSearchFaces,2024.2.4,MacIntel,59.88023952,,,,,,,,1154.5546,1154.6535,1154.6535,1156.6543,block3,f,1,1,37,77,29,1,0,bottom_right,neutral,no_target,0.703,,,,,,,,,,,,,,,,,
,,,,,253617,m,y,l,n,12,0,2025-04-04_11h06.44.039,VisualSearchFaces,2024.2.4,MacIntel,59.88023952,,,,,,,,1157.6557,1157.771,1157.771,1159.7711,block3,j,1,1,38,78,14,1,1,bottom_right,friendly,neutral,0.5556,,,,,,,,,,,,,,,,,
,,,,,253617,m,y,l,n,12,0,2025-04-04_11h06.44.039,VisualSearchFaces,2024.2.4,MacIntel,59.88023952,,,,,,,,1160.7723,1160.8876,1160.8876,1162.8878,block3,j,1,1,39,79,0,1,1,centre,neutral,friendly,0.5671,,,,,,,,,,,,,,,,,
,,,,,253617,m,y,l,n,12,0,2025-04-04_11h06.44.039,VisualSearchFaces,2024.2.4,MacIntel,59.88023952,,,1170.1569,1183.6375,space,13.4606,,1184.6396,1184.7552,1184.7552,1186.7553,block4,f,1,0,0,0,20,1,0,centre,neutral,no_target,0.7446,,1162.8923,1170.1547,space,7.2316,,,,,,,,,,,,
,,,,,253617,m,y,l,n,12,0,2025-04-04_11h06.44.039,VisualSearchFaces,2024.2.4,MacIntel,59.88023952,,,,,,,,1187.7564,1187.8718,1187.8718,1189.8719,block4,f,1,0,1,1,33,1,0,bottom_left,friendly,no_target,0.6271,,,,,,,,,,,,,,,,,
,,,,,253617,m,y,l,n,12,0,2025-04-04_11h06.44.039,VisualSearchFaces,2024.2.4,MacIntel,59.88023952,,,,,,,,1190.8734,1190.9886,1190.9886,1192.9887,block4,f,1,0,2,2,25,1,0,centre,neutral,no_target,0.522,,,,,,,,,,,,,,,,,
,,,,,253617,m,y,l,n,12,0,2025-04-04_11h06.44.039,VisualSearchFaces,2024.2.4,MacIntel,59.88023952,,,,,,,,1193.9899,1194.1054,1194.1054,1196.1055,block4,f,1,0,3,3,30,1,0,centre,friendly,no_target,0.4862,,,,,,,,,,,,,,,,,
,,,,,253617,m,y,l,n,12,0,2025-04-04_11h06.44.039,VisualSearchFaces,2024.2.4,MacIntel,59.88023952,,,,,,,,1197.1065,1197.2221,1197.2222,1199.2223,block4,j,1,0,4,4,1,1,1,top_left,neutral,friendly,0.5046,,,,,,,,,,,,,,,,,
,,,,,253617,m,y,l,n,12,0,2025-04-04_11h06.44.039,VisualSearchFaces,2024.2.4,MacIntel,59.88023952,,,,,,,,1200.2234,1200.339,1200.339,1202.3389,block4,f,1,0,5,5,29,1,0,bottom_right,neutral,no_target,0.6962,,,,,,,,,,,,,,,,,
,,,,,253617,m,y,l,n,12,0,2025-04-04_11h06.44.039,VisualSearchFaces,2024.2.4,MacIntel,59.88023952,,,,,,,,1203.34,1203.439,1203.439,1205.4391,block4,f,1,0,6,6,26,1,0,top_left,neutral,no_target,0.7036,,,,,,,,,,,,,,,,,
,,,,,253617,m,y,l,n,12,0,2025-04-04_11h06.44.039,VisualSearchFaces,2024.2.4,MacIntel,59.88023952,,,,,,,,1206.4401,1206.5558,1206.5558,1208.5559,block4,j,1,0,7,7,14,1,1,bottom_right,friendly,neutral,0.4947,,,,,,,,,,,,,,,,,
,,,,,253617,m,y,l,n,12,0,2025-04-04_11h06.44.039,VisualSearchFaces,2024.2.4,MacIntel,59.88023952,,,,,,,,1209.5568,1209.672,1209.672,1211.6725,block4,j,1,0,8,8,7,1,1,top_right,neutral,threatening,0.6168,,,,,,,,,,,,,,,,,
,,,,,253617,m,y,l,n,12,0,2025-04-04_11h06.44.039,VisualSearchFaces,2024.2.4,MacIntel,59.88023952,,,,,,,,1212.674,1212.7883,1212.7884,1214.7894,block4,f,1,0,9,9,22,1,0,top_right,neutral,no_target,0.4138,,,,,,,,,,,,,,,,,
,,,,,253617,m,y,l,n,12,0,2025-04-04_11h06.44.039,VisualSearchFaces,2024.2.4,MacIntel,59.88023952,,,,,,,,1215.7898,1215.8896,1215.8896,1217.8894,block4,f,1,0,10,10,24,1,0,bottom_right,neutral,no_target,0.5663,,,,,,,,,,,,,,,,,
,,,,,253617,m,y,l,n,12,0,2025-04-04_11h06.44.039,VisualSearchFaces,2024.2.4,MacIntel,59.88023952,,,,,,,,1218.8908,1219.0061,1219.0061,1221.0061,block4,f,1,0,11,11,35,1,0,centre,threatening,no_target,0.6006,,,,,,,,,,,,,,,,,
,,,,,253617,m,y,l,n,12,0,2025-04-04_11h06.44.039,VisualSearchFaces,2024.2.4,MacIntel,59.88023952,,,,,,,,1222.0077,1222.1229,1222.123,1224.123,block4,j,1,0,12,12,18,1,1,bottom_left,threatening,neutral,0.6044,,,,,,,,,,,,,,,,,
,,,,,253617,m,y,l,n,12,0,2025-04-04_11h06.44.039,VisualSearchFaces,2024.2.4,MacIntel,59.88023952,,,,,,,,1225.1244,1225.2397,1225.2397,1227.2398,block4,f,1,0,13,13,34,1,0,bottom_right,friendly,no_target,0.6661,,,,,,,,,,,,,,,,,
,,,,,253617,m,y,l,n,12,0,2025-04-04_11h06.44.039,VisualSearchFaces,2024.2.4,MacIntel,59.88023952,,,,,,,,1228.2413,1228.3563,1228.3565,1230.3565,block4,j,1,0,14,14,19,1,1,bottom_right,threatening,neutral,0.544,,,,,,,,,,,,,,,,,
,,,,,253617,m,y,l,n,12,0,2025-04-04_11h06.44.039,VisualSearchFaces,2024.2.4,MacIntel,59.88023952,,,,,,,,1231.3577,1231.4733,1231.4734,1233.4733,block4,f,1,0,15,15,31,1,0,top_left,friendly,no_target,0.5661,,,,,,,,,,,,,,,,,
,,,,,253617,m,y,l,n,12,0,2025-04-04_11h06.44.039,VisualSearchFaces,2024.2.4,MacIntel,59.88023952,,,,,,,,1234.4744,1234.5899,1234.5899,1236.59,block4,j,1,0,16,16,13,1,1,bottom_left,friendly,neutral,0.5856,,,,,,,,,,,,,,,,,
,,,,,253617,m,y,l,n,12,0,2025-04-04_11h06.44.039,VisualSearchFaces,2024.2.4,MacIntel,59.88023952,,,,,,,,1237.5914,1237.7068,1237.7068,1239.7068,block4,j,1,0,17,17,15,1,1,centre,threatening,neutral,0.5163,,,,,,,,,,,,,,,,,
,,,,,253617,m,y,l,n,12,0,2025-04-04_11h06.44.039,VisualSearchFaces,2024.2.4,MacIntel,59.88023952,,,,,,,,1240.708,1240.8234,1240.8234,1242.8234,block4,f,1,0,18,18,28,1,0,bottom_left,neutral,no_target,0.9126,,,,,,,,,,,,,,,,,
,,,,,253617,m,y,l,n,12,0,2025-04-04_11h06.44.039,VisualSearchFaces,2024.2.4,MacIntel,59.88023952,,,,,,,,1243.8243,1243.9236,1243.9236,1245.9237,block4,f,1,0,19,19,21,1,0,top_left,neutral,no_target,0.6328,,,,,,,,,,,,,,,,,
,,,,,253617,m,y,l,n,12,0,2025-04-04_11h06.44.039,VisualSearchFaces,2024.2.4,MacIntel,59.88023952,,,,,,,,1246.9249,1247.0403,1247.0404,1249.0404,block4,f,1,0,20,20,36,1,0,top_left,threatening,no_target,0.5196,,,,,,,,,,,,,,,,,
,,,,,253617,m,y,l,n,12,0,2025-04-04_11h06.44.039,VisualSearchFaces,2024.2.4,MacIntel,59.88023952,,,,,,,,1250.0411,1250.1404,1250.1404,1252.1404,block4,j,1,0,21,21,3,1,1,bottom_left,neutral,friendly,0.6763,,,,,,,,,,,,,,,,,
,,,,,253617,m,y,l,n,12,0,2025-04-04_11h06.44.039,VisualSearchFaces,2024.2.4,MacIntel,59.88023952,,,,,,,,1253.1419,1253.2572,1253.2572,1255.2573,block4,j,1,0,22,22,0,1,1,centre,neutral,friendly,0.6092,,,,,,,,,,,,,,,,,
,,,,,253617,m,y,l,n,12,0,2025-04-04_11h06.44.039,VisualSearchFaces,2024.2.4,MacIntel,59.88023952,,,,,,,,1256.2587,1256.3739,1256.3739,1258.3741,block4,j,1,0,23,23,6,1,1,top_left,neutral,threatening,0.6464,,,,,,,,,,,,,,,,,
,,,,,253617,m,y,l,n,12,0,2025-04-04_11h06.44.039,VisualSearchFaces,2024.2.4,MacIntel,59.88023952,,,,,,,,1259.3752,1259.4909,1259.4909,1261.491,block4,j,1,0,24,24,5,1,1,centre,neutral,threatening,0.616,,,,,,,,,,,,,,,,,
,,,,,253617,m,y,l,n,12,0,2025-04-04_11h06.44.039,VisualSearchFaces,2024.2.4,MacIntel,59.88023952,,,,,,,,1262.4925,1262.6075,1262.6075,1264.6076,block4,f,1,0,25,25,23,1,0,bottom_left,neutral,no_target,0.6331,,,,,,,,,,,,,,,,,
,,,,,253617,m,y,l,n,12,0,2025-04-04_11h06.44.039,VisualSearchFaces,2024.2.4,MacIntel,59.88023952,,,,,,,,1265.608,1265.7075,1265.7075,1267.7076,block4,f,1,0,26,26,39,1,0,bottom_right,threatening,no_target,0.7495,,,,,,,,,,,,,,,,,
,,,,,253617,m,y,l,n,12,0,2025-04-04_11h06.44.039,VisualSearchFaces,2024.2.4,MacIntel,59.88023952,,,,,,,,1268.7088,1268.8244,1268.8245,1270.8244,block4,j,1,0,27,27,12,1,1,top_right,friendly,neutral,0.9362,,,,,,,,,,,,,,,,,
,,,,,253617,m,y,l,n,12,0,2025-04-04_11h06.44.039,VisualSearchFaces,2024.2.4,MacIntel,59.88023952,,,,,,,,1271.8256,1271.9412,1271.9412,1273.9411,block4,f,1,0,28,28,32,1,0,top_right,friendly,no_target,0.7166,,,,,,,,,,,,,,,,,
,,,,,253617,m,y,l,n,12,0,2025-04-04_11h06.44.039,VisualSearchFaces,2024.2.4,MacIntel,59.88023952,,,,,,,,1274.9426,1275.0578,1275.0579,1277.0579,block4,j,1,0,29,29,9,1,1,bottom_right,neutral,threatening,0.4623,,,,,,,,,,,,,,,,,
,,,,,253617,m,y,l,n,12,0,2025-04-04_11h06.44.039,VisualSearchFaces,2024.2.4,MacIntel,59.88023952,,,,,,,,1278.0591,1278.1745,1278.1745,1280.1738,block4,f,1,0,30,30,38,1,0,bottom_left,threatening,no_target,0.58,,,,,,,,,,,,,,,,,
,,,,,253617,m,y,l,n,12,0,2025-04-04_11h06.44.039,VisualSearchFaces,2024.2.4,MacIntel,59.88023952,,,,,,,,1281.1761,1281.2914,1281.2914,1283.2914,block4,j,1,0,31,31,11,1,1,top_left,friendly,neutral,0.546,,,,,,,,,,,,,,,,,
,,,,,253617,m,y,l,n,12,0,2025-04-04_11h06.44.039,VisualSearchFaces,2024.2.4,MacIntel,59.88023952,,,,,,,,1284.2922,1284.3914,1284.3914,1286.3916,block4,j,1,0,32,32,2,1,1,top_right,neutral,friendly,0.5541,,,,,,,,,,,,,,,,,
,,,,,253617,m,y,l,n,12,0,2025-04-04_11h06.44.039,VisualSearchFaces,2024.2.4,MacIntel,59.88023952,,,,,,,,1287.3927,1287.5081,1287.5081,1289.5082,block4,f,1,0,33,33,37,1,0,top_right,threatening,no_target,0.5171,,,,,,,,,,,,,,,,,
,,,,,253617,m,y,l,n,12,0,2025-04-04_11h06.44.039,VisualSearchFaces,2024.2.4,MacIntel,59.88023952,,,,,,,,1290.5093,1290.6082,1290.6082,1292.6085,block4,j,1,0,34,34,4,1,1,bottom_right,neutral,friendly,0.9531,,,,,,,,,,,,,,,,,
,,,,,253617,m,y,l,n,12,0,2025-04-04_11h06.44.039,VisualSearchFaces,2024.2.4,MacIntel,59.88023952,,,,,,,,1293.6101,1293.7241,1293.7242,1295.7242,block4,j,1,0,35,35,17,1,1,top_right,threatening,neutral,0.5343,,,,,,,,,,,,,,,,,
,,,,,253617,m,y,l,n,12,0,2025-04-04_11h06.44.039,VisualSearchFaces,2024.2.4,MacIntel,59.88023952,,,,,,,,1296.7263,1296.8417,1296.8417,1298.8418,block4,j,1,0,36,36,8,1,1,bottom_left,neutral,threatening,0.7195,,,,,,,,,,,,,,,,,
,,,,,253617,m,y,l,n,12,0,2025-04-04_11h06.44.039,VisualSearchFaces,2024.2.4,MacIntel,59.88023952,,,,,,,,1299.8433,1299.9586,1299.9586,1301.9577,block4,f,1,0,37,37,27,1,0,top_right,neutral,no_target,0.4946,,,,,,,,,,,,,,,,,
,,,,,253617,m,y,l,n,12,0,2025-04-04_11h06.44.039,VisualSearchFaces,2024.2.4,MacIntel,59.88023952,,,,,,,,1302.9597,1303.0753,1303.0753,1305.0754,block4,j,1,0,38,38,16,1,1,top_left,threatening,neutral,0.6269,,,,,,,,,,,,,,,,,
,,,,,253617,m,y,l,n,12,0,2025-04-04_11h06.44.039,VisualSearchFaces,2024.2.4,MacIntel,59.88023952,,,,,,,,1306.0769,1306.192,1306.192,1308.1921,block4,j,1,0,39,39,10,1,1,centre,friendly,neutral,0.5,,,,,,,,,,,,,,,,,
,,,,,253617,m,y,l,n,12,0,2025-04-04_11h06.44.039,VisualSearchFaces,2024.2.4,MacIntel,59.88023952,,,,,,,,1309.1937,1309.3079,1309.308,1311.3088,block4,f,1,1,0,40,23,1,0,bottom_left,neutral,no_target,0.5507,,,,,,,,,,,,,,,,,
,,,,,253617,m,y,l,n,12,0,2025-04-04_11h06.44.039,VisualSearchFaces,2024.2.4,MacIntel,59.88023952,,,,,,,,1312.3101,1312.409,1312.409,1314.409,block4,f,1,1,1,41,29,1,0,bottom_right,neutral,no_target,0.7164,,,,,,,,,,,,,,,,,
,,,,,253617,m,y,l,n,12,0,2025-04-04_11h06.44.039,VisualSearchFaces,2024.2.4,MacIntel,59.88023952,,,,,,,,1315.4094,1315.5257,1315.5257,1317.5258,block4,j,1,1,2,42,18,1,1,bottom_left,threatening,neutral,0.6361,,,,,,,,,,,,,,,,,
,,,,,253617,m,y,l,n,12,0,2025-04-04_11h06.44.039,VisualSearchFaces,2024.2.4,MacIntel,59.88023952,,,,,,,,1318.5272,1318.6425,1318.6425,1320.6417,block4,j,1,1,3,43,13,1,1,bottom_left,friendly,neutral,0.6,,,,,,,,,,,,,,,,,
,,,,,253617,m,y,l,n,12,0,2025-04-04_11h06.44.039,VisualSearchFaces,2024.2.4,MacIntel,59.88023952,,,,,,,,1321.6437,1321.7591,1321.7591,1323.7593,block4,j,1,1,4,44,4,1,1,bottom_right,neutral,friendly,0.6301,,,,,,,,,,,,,,,,,
,,,,,253617,m,y,l,n,12,0,2025-04-04_11h06.44.039,VisualSearchFaces,2024.2.4,MacIntel,59.88023952,,,,,,,,1324.7608,1324.8759,1324.876,1326.876,block4,j,1,1,5,45,10,1,1,centre,friendly,neutral,0.5794,,,,,,,,,,,,,,,,,
,,,,,253617,m,y,l,n,12,0,2025-04-04_11h06.44.039,VisualSearchFaces,2024.2.4,MacIntel,59.88023952,,,,,,,,1327.8772,1327.9926,1327.9926,1329.9918,block4,j,1,1,6,46,11,1,1,top_left,friendly,neutral,0.5627,,,,,,,,,,,,,,,,,
,,,,,253617,m,y,l,n,12,0,2025-04-04_11h06.44.039,VisualSearchFaces,2024.2.4,MacIntel,59.88023952,,,,,,,,1330.9936,1331.1094,1331.1094,1333.1094,block4,f,1,1,7,47,35,1,0,centre,threatening,no_target,0.817,,,,,,,,,,,,,,,,,
,,,,,253617,m,y,l,n,12,0,2025-04-04_11h06.44.039,VisualSearchFaces,2024.2.4,MacIntel,59.88023952,,,,,,,,1334.1103,1334.2261,1334.2261,1336.2262,block4,j,1,1,8,48,6,1,1,top_left,neutral,threatening,0.5684,,,,,,,,,,,,,,,,,
,,,,,253617,m,y,l,n,12,0,2025-04-04_11h06.44.039,VisualSearchFaces,2024.2.4,MacIntel,59.88023952,,,,,,,,1337.2269,1337.3422,1337.3422,1339.343,block4,j,1,1,9,49,7,1,1,top_right,neutral,threatening,0.6511,,,,,,,,,,,,,,,,,
,,,,,253617,m,y,l,n,12,0,2025-04-04_11h06.44.039,VisualSearchFaces,2024.2.4,MacIntel,59.88023952,,,,,,,,1340.3436,1340.4596,1340.4597,1342.4591,block4,f,1,1,10,50,38,1,0,bottom_left,threatening,no_target,0.5798,,,,,,,,,,,,,,,,,
,,,,,253617,m,y,l,n,12,0,2025-04-04_11h06.44.039,VisualSearchFaces,2024.2.4,MacIntel,59.88023952,,,,,,,,1343.4606,1343.5765,1343.5765,1345.5759,block4,j,1,1,11,51,17,1,1,top_right,threatening,neutral,0.4619,,,,,,,,,,,,,,,,,
,,,,,253617,m,y,l,n,12,0,2025-04-04_11h06.44.039,VisualSearchFaces,2024.2.4,MacIntel,59.88023952,,,,,,,,1346.5772,1346.6933,1346.6933,1348.6933,block4,f,1,1,12,52,39,1,0,bottom_right,threatening,no_target,0.5671,,,,,,,,,,,,,,,,,
,,,,,253617,m,y,l,n,12,0,2025-04-04_11h06.44.039,VisualSearchFaces,2024.2.4,MacIntel,59.88023952,,,,,,,,1349.694,1349.8099,1349.8099,1351.8091,block4,j,1,1,13,53,15,1,1,centre,threatening,neutral,0.5127,,,,,,,,,,,,,,,,,
,,,,,253617,m,y,l,n,12,0,2025-04-04_11h06.44.039,VisualSearchFaces,2024.2.4,MacIntel,59.88023952,,,,,,,,1352.8107,1352.91,1352.91,1354.9102,block4,j,1,1,14,54,3,1,1,bottom_left,neutral,friendly,0.4337,,,,,,,,,,,,,,,,,
,,,,,253617,m,y,l,n,12,0,2025-04-04_11h06.44.039,VisualSearchFaces,2024.2.4,MacIntel,59.88023952,,,,,,,,1355.9117,1356.0268,1356.0268,1358.027,block4,f,1,1,15,55,24,1,0,bottom_right,neutral,no_target,0.496,,,,,,,,,,,,,,,,,
,,,,,253617,m,y,l,n,12,0,2025-04-04_11h06.44.039,VisualSearchFaces,2024.2.4,MacIntel,59.88023952,,,,,,,,1359.0264,1359.1269,1359.1269,1361.127,block4,f,1,1,16,56,37,1,0,top_right,threatening,no_target,0.9501,,,,,,,,,,,,,,,,,
,,,,,253617,m,y,l,n,12,0,2025-04-04_11h06.44.039,VisualSearchFaces,2024.2.4,MacIntel,59.88023952,,,,,,,,1362.1279,1362.2436,1362.2437,1364.2437,block4,j,1,1,17,57,14,1,1,bottom_right,friendly,neutral,0.6501,,,,,,,,,,,,,,,,,
,,,,,253617,m,y,l,n,12,0,2025-04-04_11h06.44.039,VisualSearchFaces,2024.2.4,MacIntel,59.88023952,,,,,,,,1365.2436,1365.3437,1365.3437,1367.3434,block4,f,1,1,18,58,31,1,0,top_left,friendly,no_target,1.0966,,,,,,,,,,,,,,,,,
,,,,,253617,m,y,l,n,12,0,2025-04-04_11h06.44.039,VisualSearchFaces,2024.2.4,MacIntel,59.88023952,,,,,,,,1368.3446,1368.4606,1368.4606,1370.4606,block4,f,1,1,19,59,32,1,0,top_right,friendly,no_target,0.5275,,,,,,,,,,,,,,,,,
,,,,,253617,m,y,l,n,12,0,2025-04-04_11h06.44.039,VisualSearchFaces,2024.2.4,MacIntel,59.88023952,,,,,,,,1371.4615,1371.5773,1371.5773,1373.5773,block4,j,1,1,20,60,5,1,1,centre,neutral,threatening,0.3335,,,,,,,,,,,,,,,,,
,,,,,253617,m,y,l,n,12,0,2025-04-04_11h06.44.039,VisualSearchFaces,2024.2.4,MacIntel,59.88023952,,,,,,,,1374.5785,1374.6941,1374.6941,1376.6941,block4,f,1,1,21,61,33,1,0,bottom_left,friendly,no_target,0.5019,,,,,,,,,,,,,,,,,
,,,,,253617,m,y,l,n,12,0,2025-04-04_11h06.44.039,VisualSearchFaces,2024.2.4,MacIntel,59.88023952,,,,,,,,1377.6947,1377.7942,1377.7942,1379.7942,block4,f,1,1,22,62,30,1,0,centre,friendly,no_target,0.477,,,,,,,,,,,,,,,,,
,,,,,253617,m,y,l,n,12,0,2025-04-04_11h06.44.039,VisualSearchFaces,2024.2.4,MacIntel,59.88023952,,,,,,,,1380.7946,1380.8943,1380.8943,1382.8943,block4,j,1,1,23,63,9,1,1,bottom_right,neutral,threatening,0.393,,,,,,,,,,,,,,,,,
,,,,,253617,m,y,l,n,12,0,2025-04-04_11h06.44.039,VisualSearchFaces,2024.2.4,MacIntel,59.88023952,,,,,,,,1383.8952,1384.011,1384.0111,1386.0111,block4,f,1,1,24,64,20,1,0,centre,neutral,no_target,0.5952,,,,,,,,,,,,,,,,,
,,,,,253617,m,y,l,n,12,0,2025-04-04_11h06.44.039,VisualSearchFaces,2024.2.4,MacIntel,59.88023952,,,,,,,,1387.0123,1387.1277,1387.1277,1389.1279,block4,j,1,1,25,65,12,1,1,top_right,friendly,neutral,0.4669,,,,,,,,,,,,,,,,,
,,,,,253617,m,y,l,n,12,0,2025-04-04_11h06.44.039,VisualSearchFaces,2024.2.4,MacIntel,59.88023952,,,,,,,,1390.1286,1390.2446,1390.2446,1392.2445,block4,f,1,1,26,66,22,1,0,top_right,neutral,no_target,0.4435,,,,,,,,,,,,,,,,,
,,,,,253617,m,y,l,n,12,0,2025-04-04_11h06.44.039,VisualSearchFaces,2024.2.4,MacIntel,59.88023952,,,,,,,,1393.2447,1393.3603,1393.3603,1395.3605,block4,j,1,1,27,67,2,1,1,top_right,neutral,friendly,0.3721,,,,,,,,,,,,,,,,,
,,,,,253617,m,y,l,n,12,0,2025-04-04_11h06.44.039,VisualSearchFaces,2024.2.4,MacIntel,59.88023952,,,,,,,,1396.3625,1396.478,1396.4781,1398.4781,block4,f,1,1,28,68,34,1,0,bottom_right,friendly,no_target,0.5347,,,,,,,,,,,,,,,,,
,,,,,253617,m,y,l,n,12,0,2025-04-04_11h06.44.039,VisualSearchFaces,2024.2.4,MacIntel,59.88023952,,,,,,,,1399.4794,1399.5947,1399.5947,1401.5949,block4,j,1,1,29,69,19,1,1,bottom_right,threatening,neutral,0.505,,,,,,,,,,,,,,,,,
,,,,,253617,m,y,l,n,12,0,2025-04-04_11h06.44.039,VisualSearchFaces,2024.2.4,MacIntel,59.88023952,,,,,,,,1402.596,1402.7116,1402.7116,1404.7116,block4,j,1,1,30,70,8,1,1,bottom_left,neutral,threatening,0.5597,,,,,,,,,,,,,,,,,
,,,,,253617,m,y,l,n,12,0,2025-04-04_11h06.44.039,VisualSearchFaces,2024.2.4,MacIntel,59.88023952,,,,,,,,1405.7131,1405.8283,1405.8284,1407.8274,block4,f,1,1,31,71,36,1,0,top_left,threatening,no_target,0.5955,,,,,,,,,,,,,,,,,
,,,,,253617,m,y,l,n,12,0,2025-04-04_11h06.44.039,VisualSearchFaces,2024.2.4,MacIntel,59.88023952,,,,,,,,1408.8295,1408.9451,1408.9451,1410.9452,block4,j,1,1,32,72,0,1,1,centre,neutral,friendly,0.5106,,,,,,,,,,,,,,,,,
,,,,,253617,m,y,l,n,12,0,2025-04-04_11h06.44.039,VisualSearchFaces,2024.2.4,MacIntel,59.88023952,,,,,,,,1411.946,1412.0619,1412.0619,1414.0618,block4,f,1,1,33,73,27,1,0,top_right,neutral,no_target,0.4866,,,,,,,,,,,,,,,,,
,,,,,253617,m,y,l,n,12,0,2025-04-04_11h06.44.039,VisualSearchFaces,2024.2.4,MacIntel,59.88023952,,,,,,,,1415.0621,1415.1777,1415.1777,1417.1779,block4,f,1,1,34,74,21,1,0,top_left,neutral,no_target,0.8034,,,,,,,,,,,,,,,,,
,,,,,253617,m,y,l,n,12,0,2025-04-04_11h06.44.039,VisualSearchFaces,2024.2.4,MacIntel,59.88023952,,,,,,,,1418.1801,1418.2956,1418.2956,1420.2955,block4,f,1,1,35,75,26,1,0,top_left,neutral,no_target,0.5928,,,,,,,,,,,,,,,,,
,,,,,253617,m,y,l,n,12,0,2025-04-04_11h06.44.039,VisualSearchFaces,2024.2.4,MacIntel,59.88023952,,,,,,,,1421.2965,1421.3957,1421.3958,1423.3952,block4,f,1,1,36,76,28,1,0,bottom_left,neutral,no_target,0.4937,,,,,,,,,,,,,,,,,
,,,,,253617,m,y,l,n,12,0,2025-04-04_11h06.44.039,VisualSearchFaces,2024.2.4,MacIntel,59.88023952,,,,,,,,1424.3969,1424.5122,1424.5122,1426.5122,block4,f,1,1,37,77,25,1,0,centre,neutral,no_target,0.4338,,,,,,,,,,,,,,,,,
,,,,,253617,m,y,l,n,12,0,2025-04-04_11h06.44.039,VisualSearchFaces,2024.2.4,MacIntel,59.88023952,,,,,,,,1427.5129,1427.6122,1427.6122,1429.6114,block4,j,1,1,38,78,16,1,1,top_left,threatening,neutral,0.4829,,,,,,,,,,,,,,,,,
,,,,,253617,m,y,l,n,12,0,2025-04-04_11h06.44.039,VisualSearchFaces,2024.2.4,MacIntel,59.88023952,,,,,,,,1430.6137,1430.7291,1430.7291,1432.7294,block4,j,1,1,39,79,1,1,1,top_left,neutral,friendly,0.4846,,,,,,,,,,,,,,,,,
,,,,,253617,m,y,l,n,12,0,2025-04-04_11h06.44.039,VisualSearchFaces,2024.2.4,MacIntel,59.88023952,,,,,,,,,,,,,,,,,,,,,,,,,,1432.7307,1435.5792,space,2.8289,,1435.5799,1483.299,They seemed mostly angry. Very cute.,1,[1483.298],[1483.298],,,,,
,,,,,253617,m,y,l,n,12,0,2025-04-04_11h06.44.039,VisualSearchFaces,2024.2.4,MacIntel,59.88023952,,,,,,,,,,,,,,,,,,,,,,,,,,,,,,,,,,,,,1483.2993,1490.6644,space,7.3441,
