Welcome.started,Welcome.stopped,keyboard_space_welcome.keys,keyboard_space_welcome.rt,keyboard_space_welcome.duration,participant,gender,(corrected) normal vision,handedness,exp vse,session,skip_intro,date,expName,psychopyVersion,OS,frameRate,stimulus_exposure.started,stimulus_exposure.stopped,Block_intro.started,Block_intro.stopped,keyboard_space.keys,keyboard_space.rt,keyboard_space.duration,Stimulus.started,Stimulus.stopped,fixation_ending.started,fixation_ending.stopped,block_id,keyboard_response.keys,keyboard_response.corr,trials.thisRepN,trials.thisTrialN,trials.thisN,trials.thisIndex,trials.ran,target_presence,target_position,background_emotion,target_emotion,keyboard_response.rt,keyboard_response.duration,Block_outro.started,Block_outro.stopped,keyboard_space_end.keys,keyboard_space_end.rt,keyboard_space_end.duration,Question_about_stimulus.started,Question_about_stimulus.stopped,textbox_response.text,button.numClicks,button.timesOn,button.timesOff,Thanks.started,Thanks.stopped,keyboard_space_goodbye.keys,keyboard_space_goodbye.rt,keyboard_space_goodbye.duration
0.0002,61.2527,space,61.1754,,275059,f,y,r,n,13,0,2025-04-01_20h42.48.210,VisualSearchFaces,2024.2.4,Win32,60.24096386,,,,,,,,,,,,,,,,,,,,,,,,,,,,,,,,,,,,,,,,,
,,,,,275059,f,y,r,n,13,0,2025-04-01_20h42.48.210,VisualSearchFaces,2024.2.4,Win32,60.24096386,82.3609,85.3707,85.3904,136.0909,space,50.6192,,137.0855,137.354,137.3544,139.3577,practice1,,0,0,0,0,39,1,0,bottom_right,threatening,no_target,,,,,,,,,,,,,,,,,,
,,,,,275059,f,y,r,n,13,0,2025-04-01_20h42.48.210,VisualSearchFaces,2024.2.4,Win32,60.24096386,,,,,,,,140.3654,140.6217,140.6218,142.6176,practice1,,0,0,1,1,32,1,0,top_right,friendly,no_target,,,,,,,,,,,,,,,,,,
,,,,,275059,f,y,r,n,13,0,2025-04-01_20h42.48.210,VisualSearchFaces,2024.2.4,Win32,60.24096386,,,,,,,,143.6163,143.8772,143.8773,145.8838,practice1,,0,0,2,2,29,1,0,bottom_right,neutral,no_target,,,,,,,,,,,,,,,,,,
,,,,,275059,f,y,r,n,13,0,2025-04-01_20h42.48.210,VisualSearchFaces,2024.2.4,Win32,60.24096386,,,,,,,,146.8721,147.1298,147.1299,149.1209,practice1,j,1,0,3,3,8,1,1,bottom_left,neutral,threatening,1.1787,,,,,,,,,,,,,,,,,
,,,,,275059,f,y,r,n,13,0,2025-04-01_20h42.48.210,VisualSearchFaces,2024.2.4,Win32,60.24096386,,,,,,,,150.116,150.379,150.3791,152.3576,practice1,,0,0,4,4,15,1,1,centre,threatening,neutral,,,,,,,,,,,,,,,,,,
,,,,,275059,f,y,r,n,13,0,2025-04-01_20h42.48.210,VisualSearchFaces,2024.2.4,Win32,60.24096386,,,,,,,,153.3616,153.6236,153.6238,155.6201,practice1,j,1,0,5,5,17,1,1,top_right,threatening,neutral,1.1515,,,,,,,,,,,,,,,,,
,,,,,275059,f,y,r,n,13,0,2025-04-01_20h42.48.210,VisualSearchFaces,2024.2.4,Win32,60.24096386,,,,,,,,156.6274,156.8903,156.8904,158.8975,practice1,f,1,0,6,6,20,1,0,centre,neutral,no_target,1.604,,,,,,,,,,,,,,,,,
,,,,,275059,f,y,r,n,13,0,2025-04-01_20h42.48.210,VisualSearchFaces,2024.2.4,Win32,60.24096386,,,,,,,,159.9031,160.1498,160.1501,162.1515,practice1,j,1,0,7,7,19,1,1,bottom_right,threatening,neutral,0.6245,,,,,,,,,,,,,,,,,
,,,,,275059,f,y,r,n,13,0,2025-04-01_20h42.48.210,VisualSearchFaces,2024.2.4,Win32,60.24096386,,,,,,,,163.1468,163.4072,163.4073,165.4022,practice1,j,0,0,8,8,30,1,0,centre,friendly,no_target,1.6419,,,,,,,,,,,,,,,,,
,,,,,275059,f,y,r,n,13,0,2025-04-01_20h42.48.210,VisualSearchFaces,2024.2.4,Win32,60.24096386,,,,,,,,166.3952,166.6557,166.6559,168.6613,practice1,,0,0,9,9,37,1,0,top_right,threatening,no_target,,,,,,,,,,,,,,,,,,
,,,,,275059,f,y,r,n,13,0,2025-04-01_20h42.48.210,VisualSearchFaces,2024.2.4,Win32,60.24096386,,,,,,,,169.6415,169.9002,169.9004,171.8849,practice1,,0,0,10,10,35,1,0,centre,threatening,no_target,,,,,,,,,,,,,,,,,,
,,,,,275059,f,y,r,n,13,0,2025-04-01_20h42.48.210,VisualSearchFaces,2024.2.4,Win32,60.24096386,,,,,,,,172.9038,173.1638,173.1639,175.1706,practice1,j,1,0,11,11,9,1,1,bottom_right,neutral,threatening,0.9185,,,,,,,,,,,,,,,,,
,,,,,275059,f,y,r,n,13,0,2025-04-01_20h42.48.210,VisualSearchFaces,2024.2.4,Win32,60.24096386,,,,,,,,176.175,176.4337,176.4339,178.4212,practice1,j,1,0,12,12,6,1,1,top_left,neutral,threatening,0.5946,,,,,,,,,,,,,,,,,
,,,,,275059,f,y,r,n,13,0,2025-04-01_20h42.48.210,VisualSearchFaces,2024.2.4,Win32,60.24096386,,,,,,,,179.436,179.6903,179.6903,181.6688,practice1,f,1,0,13,13,28,1,0,bottom_left,neutral,no_target,0.959,,,,,,,,,,,,,,,,,
,,,,,275059,f,y,r,n,13,0,2025-04-01_20h42.48.210,VisualSearchFaces,2024.2.4,Win32,60.24096386,,,,,,,,182.6837,182.9454,182.9455,184.9456,practice1,,0,0,14,14,33,1,0,bottom_left,friendly,no_target,,,,,,,,,,,,,,,,,,
,,,,,275059,f,y,r,n,13,0,2025-04-01_20h42.48.210,VisualSearchFaces,2024.2.4,Win32,60.24096386,,,,,,,,185.9537,186.2007,186.2008,188.2036,practice1,j,1,0,15,15,16,1,1,top_left,threatening,neutral,0.7629,,,,,,,,,,,,,,,,,
,,,,,275059,f,y,r,n,13,0,2025-04-01_20h42.48.210,VisualSearchFaces,2024.2.4,Win32,60.24096386,,,,,,,,189.2087,189.4673,189.4675,191.4617,practice1,,0,0,16,16,38,1,0,bottom_left,threatening,no_target,,,,,,,,,,,,,,,,,,
,,,,,275059,f,y,r,n,13,0,2025-04-01_20h42.48.210,VisualSearchFaces,2024.2.4,Win32,60.24096386,,,,,,,,192.4803,192.7423,192.7423,194.7337,practice1,,0,0,17,17,34,1,0,bottom_right,friendly,no_target,,,,,,,,,,,,,,,,,,
,,,,,275059,f,y,r,n,13,0,2025-04-01_20h42.48.210,VisualSearchFaces,2024.2.4,Win32,60.24096386,,,,,,,,195.7518,196.0042,196.0044,197.9933,practice1,j,1,0,18,18,14,1,1,bottom_right,friendly,neutral,0.9273,,,,,,,,,,,,,,,,,
,,,,,275059,f,y,r,n,13,0,2025-04-01_20h42.48.210,VisualSearchFaces,2024.2.4,Win32,60.24096386,,,,,,,,199.0027,199.2521,199.2522,201.2374,practice1,j,1,0,19,19,12,1,1,top_right,friendly,neutral,0.7914,,,,,,,,,,,,,,,,,
,,,,,275059,f,y,r,n,13,0,2025-04-01_20h42.48.210,VisualSearchFaces,2024.2.4,Win32,60.24096386,,,,,,,,202.2479,202.4974,202.4975,204.4866,practice1,f,1,0,20,20,24,1,0,bottom_right,neutral,no_target,0.8848,,,,,,,,,,,,,,,,,
,,,,,275059,f,y,r,n,13,0,2025-04-01_20h42.48.210,VisualSearchFaces,2024.2.4,Win32,60.24096386,,,,,,,,205.5025,205.7576,205.7577,207.7462,practice1,f,1,0,21,21,22,1,0,top_right,neutral,no_target,0.9412,,,,,,,,,,,,,,,,,
,,,,,275059,f,y,r,n,13,0,2025-04-01_20h42.48.210,VisualSearchFaces,2024.2.4,Win32,60.24096386,,,,,,,,208.7693,209.0303,209.0315,211.0278,practice1,j,1,0,22,22,3,1,1,bottom_left,neutral,friendly,0.6361,,,,,,,,,,,,,,,,,
,,,,,275059,f,y,r,n,13,0,2025-04-01_20h42.48.210,VisualSearchFaces,2024.2.4,Win32,60.24096386,,,,,,,,212.0322,212.2919,212.292,214.271,practice1,j,1,0,23,23,18,1,1,bottom_left,threatening,neutral,0.9452,,,,,,,,,,,,,,,,,
,,,,,275059,f,y,r,n,13,0,2025-04-01_20h42.48.210,VisualSearchFaces,2024.2.4,Win32,60.24096386,,,,,,,,215.2852,215.5379,215.5381,217.5437,practice1,f,1,0,24,24,23,1,0,bottom_left,neutral,no_target,0.9349,,,,,,,,,,,,,,,,,
,,,,,275059,f,y,r,n,13,0,2025-04-01_20h42.48.210,VisualSearchFaces,2024.2.4,Win32,60.24096386,,,,,,,,218.5398,218.7903,218.7904,220.7841,practice1,f,1,0,25,25,27,1,0,top_right,neutral,no_target,0.9162,,,,,,,,,,,,,,,,,
,,,,,275059,f,y,r,n,13,0,2025-04-01_20h42.48.210,VisualSearchFaces,2024.2.4,Win32,60.24096386,,,,,,,,221.7871,222.0389,222.0391,224.0378,practice1,j,1,0,26,26,4,1,1,bottom_right,neutral,friendly,0.7169,,,,,,,,,,,,,,,,,
,,,,,275059,f,y,r,n,13,0,2025-04-01_20h42.48.210,VisualSearchFaces,2024.2.4,Win32,60.24096386,,,,,,,,225.0353,225.2922,225.2923,227.3009,practice1,,0,0,27,27,25,1,0,centre,neutral,no_target,,,,,,,,,,,,,,,,,,
,,,,,275059,f,y,r,n,13,0,2025-04-01_20h42.48.210,VisualSearchFaces,2024.2.4,Win32,60.24096386,,,,,,,,228.2839,228.5384,228.5385,230.5325,practice1,j,0,0,28,28,36,1,0,top_left,threatening,no_target,1.5411,,,,,,,,,,,,,,,,,
,,,,,275059,f,y,r,n,13,0,2025-04-01_20h42.48.210,VisualSearchFaces,2024.2.4,Win32,60.24096386,,,,,,,,231.537,231.7883,231.7883,233.7878,practice1,,0,0,29,29,31,1,0,top_left,friendly,no_target,,,,,,,,,,,,,,,,,,
,,,,,275059,f,y,r,n,13,0,2025-04-01_20h42.48.210,VisualSearchFaces,2024.2.4,Win32,60.24096386,,,,,,,,234.796,235.0545,235.0546,237.0573,practice1,j,1,0,30,30,7,1,1,top_right,neutral,threatening,0.7817,,,,,,,,,,,,,,,,,
,,,,,275059,f,y,r,n,13,0,2025-04-01_20h42.48.210,VisualSearchFaces,2024.2.4,Win32,60.24096386,,,,,,,,238.0488,238.3007,238.3007,240.2777,practice1,f,1,0,31,31,21,1,0,top_left,neutral,no_target,0.8203,,,,,,,,,,,,,,,,,
,,,,,275059,f,y,r,n,13,0,2025-04-01_20h42.48.210,VisualSearchFaces,2024.2.4,Win32,60.24096386,,,,,,,,241.3095,241.5658,241.5659,243.5695,practice1,j,1,0,32,32,11,1,1,top_left,friendly,neutral,0.6769,,,,,,,,,,,,,,,,,
,,,,,275059,f,y,r,n,13,0,2025-04-01_20h42.48.210,VisualSearchFaces,2024.2.4,Win32,60.24096386,,,,,,,,244.5644,244.8245,244.8246,246.8069,practice1,f,0,0,33,33,0,1,1,centre,neutral,friendly,1.6884,,,,,,,,,,,,,,,,,
,,,,,275059,f,y,r,n,13,0,2025-04-01_20h42.48.210,VisualSearchFaces,2024.2.4,Win32,60.24096386,,,,,,,,247.8086,248.0616,248.0617,250.0629,practice1,j,1,0,34,34,1,1,1,top_left,neutral,friendly,0.5397,,,,,,,,,,,,,,,,,
,,,,,275059,f,y,r,n,13,0,2025-04-01_20h42.48.210,VisualSearchFaces,2024.2.4,Win32,60.24096386,,,,,,,,251.0746,251.3314,251.3316,253.3199,practice1,,0,0,35,35,26,1,0,top_left,neutral,no_target,,,,,,,,,,,,,,,,,,
,,,,,275059,f,y,r,n,13,0,2025-04-01_20h42.48.210,VisualSearchFaces,2024.2.4,Win32,60.24096386,,,,,,,,254.3313,254.5807,254.5809,256.5718,practice1,j,1,0,36,36,10,1,1,centre,friendly,neutral,0.8469,,,,,,,,,,,,,,,,,
,,,,,275059,f,y,r,n,13,0,2025-04-01_20h42.48.210,VisualSearchFaces,2024.2.4,Win32,60.24096386,,,,,,,,257.576,257.8243,257.8244,259.8207,practice1,,0,0,37,37,13,1,1,bottom_left,friendly,neutral,,,,,,,,,,,,,,,,,,
,,,,,275059,f,y,r,n,13,0,2025-04-01_20h42.48.210,VisualSearchFaces,2024.2.4,Win32,60.24096386,,,,,,,,260.8181,261.0772,261.0773,263.0541,practice1,j,1,0,38,38,5,1,1,centre,neutral,threatening,1.3663,,,,,,,,,,,,,,,,,
,,,,,275059,f,y,r,n,13,0,2025-04-01_20h42.48.210,VisualSearchFaces,2024.2.4,Win32,60.24096386,,,,,,,,264.0579,264.3161,264.3162,266.3094,practice1,j,1,0,39,39,2,1,1,top_right,neutral,friendly,0.6782,,,,,,,,,,,,,,,,,
,,,,,275059,f,y,r,n,13,0,2025-04-01_20h42.48.210,VisualSearchFaces,2024.2.4,Win32,60.24096386,,,282.022,303.2109,space,21.1078,,304.2191,304.3308,304.3309,306.3319,practice2,,0,0,0,0,26,1,0,top_left,neutral,no_target,,,266.311,282.0122,space,15.6511,,,,,,,,,,,,
,,,,,275059,f,y,r,n,13,0,2025-04-01_20h42.48.210,VisualSearchFaces,2024.2.4,Win32,60.24096386,,,,,,,,307.34,307.4471,307.4471,309.4446,practice2,j,0,0,1,1,31,1,0,top_left,friendly,no_target,1.5099,,,,,,,,,,,,,,,,,
,,,,,275059,f,y,r,n,13,0,2025-04-01_20h42.48.210,VisualSearchFaces,2024.2.4,Win32,60.24096386,,,,,,,,310.4544,310.5519,310.5519,312.5388,practice2,j,1,0,2,2,17,1,1,top_right,threatening,neutral,0.7527,,,,,,,,,,,,,,,,,
,,,,,275059,f,y,r,n,13,0,2025-04-01_20h42.48.210,VisualSearchFaces,2024.2.4,Win32,60.24096386,,,,,,,,313.5595,313.6624,313.6625,315.6583,practice2,j,0,0,3,3,32,1,0,top_right,friendly,no_target,1.7724,,,,,,,,,,,,,,,,,
,,,,,275059,f,y,r,n,13,0,2025-04-01_20h42.48.210,VisualSearchFaces,2024.2.4,Win32,60.24096386,,,,,,,,316.6601,316.7763,316.7763,318.7831,practice2,f,0,0,4,4,13,1,1,bottom_left,friendly,neutral,0.8815,,,,,,,,,,,,,,,,,
,,,,,275059,f,y,r,n,13,0,2025-04-01_20h42.48.210,VisualSearchFaces,2024.2.4,Win32,60.24096386,,,,,,,,319.7712,319.8829,319.8829,321.879,practice2,j,1,0,5,5,15,1,1,centre,threatening,neutral,0.7201,,,,,,,,,,,,,,,,,
,,,,,275059,f,y,r,n,13,0,2025-04-01_20h42.48.210,VisualSearchFaces,2024.2.4,Win32,60.24096386,,,,,,,,322.8816,322.9753,322.9754,324.968,practice2,j,0,0,6,6,35,1,0,centre,threatening,no_target,1.158,,,,,,,,,,,,,,,,,
,,,,,275059,f,y,r,n,13,0,2025-04-01_20h42.48.210,VisualSearchFaces,2024.2.4,Win32,60.24096386,,,,,,,,325.9703,326.0658,326.0659,328.0603,practice2,f,1,0,7,7,22,1,0,top_right,neutral,no_target,1.0353,,,,,,,,,,,,,,,,,
,,,,,275059,f,y,r,n,13,0,2025-04-01_20h42.48.210,VisualSearchFaces,2024.2.4,Win32,60.24096386,,,,,,,,329.0698,329.1718,329.1719,331.16,practice2,j,1,0,8,8,19,1,1,bottom_right,threatening,neutral,1.8729,,,,,,,,,,,,,,,,,
,,,,,275059,f,y,r,n,13,0,2025-04-01_20h42.48.210,VisualSearchFaces,2024.2.4,Win32,60.24096386,,,,,,,,332.1725,332.2822,332.2822,334.2753,practice2,f,1,0,9,9,27,1,0,top_right,neutral,no_target,1.3177,,,,,,,,,,,,,,,,,
,,,,,275059,f,y,r,n,13,0,2025-04-01_20h42.48.210,VisualSearchFaces,2024.2.4,Win32,60.24096386,,,,,,,,335.2865,335.3999,335.4,337.3926,practice2,j,0,0,10,10,33,1,0,bottom_left,friendly,no_target,0.787,,,,,,,,,,,,,,,,,
,,,,,275059,f,y,r,n,13,0,2025-04-01_20h42.48.210,VisualSearchFaces,2024.2.4,Win32,60.24096386,,,,,,,,338.414,338.5096,338.5098,340.4998,practice2,j,1,0,11,11,7,1,1,top_right,neutral,threatening,0.6149,,,,,,,,,,,,,,,,,
,,,,,275059,f,y,r,n,13,0,2025-04-01_20h42.48.210,VisualSearchFaces,2024.2.4,Win32,60.24096386,,,,,,,,341.5052,341.6318,341.6318,343.635,practice2,f,1,0,12,12,28,1,0,bottom_left,neutral,no_target,1.713,,,,,,,,,,,,,,,,,
,,,,,275059,f,y,r,n,13,0,2025-04-01_20h42.48.210,VisualSearchFaces,2024.2.4,Win32,60.24096386,,,,,,,,344.6227,344.7301,344.7302,346.7504,practice2,j,1,0,13,13,8,1,1,bottom_left,neutral,threatening,1.1938,,,,,,,,,,,,,,,,,
,,,,,275059,f,y,r,n,13,0,2025-04-01_20h42.48.210,VisualSearchFaces,2024.2.4,Win32,60.24096386,,,,,,,,347.739,347.848,347.8481,349.842,practice2,j,1,0,14,14,11,1,1,top_left,friendly,neutral,0.8516,,,,,,,,,,,,,,,,,
,,,,,275059,f,y,r,n,13,0,2025-04-01_20h42.48.210,VisualSearchFaces,2024.2.4,Win32,60.24096386,,,,,,,,350.8424,350.9408,350.9409,352.9466,practice2,f,1,0,15,15,25,1,0,centre,neutral,no_target,0.9384,,,,,,,,,,,,,,,,,
,,,,,275059,f,y,r,n,13,0,2025-04-01_20h42.48.210,VisualSearchFaces,2024.2.4,Win32,60.24096386,,,,,,,,353.9253,354.0387,354.0391,356.0365,practice2,j,1,0,16,16,5,1,1,centre,neutral,threatening,0.6474,,,,,,,,,,,,,,,,,
,,,,,275059,f,y,r,n,13,0,2025-04-01_20h42.48.210,VisualSearchFaces,2024.2.4,Win32,60.24096386,,,,,,,,357.0354,357.1501,357.1505,359.1492,practice2,f,1,0,17,17,38,1,0,bottom_left,threatening,no_target,1.7364,,,,,,,,,,,,,,,,,
,,,,,275059,f,y,r,n,13,0,2025-04-01_20h42.48.210,VisualSearchFaces,2024.2.4,Win32,60.24096386,,,,,,,,360.1636,360.2676,360.2677,362.2543,practice2,,0,0,18,18,20,1,0,centre,neutral,no_target,,,,,,,,,,,,,,,,,,
,,,,,275059,f,y,r,n,13,0,2025-04-01_20h42.48.210,VisualSearchFaces,2024.2.4,Win32,60.24096386,,,,,,,,363.2746,363.3751,363.3752,365.3814,practice2,,0,0,19,19,34,1,0,bottom_right,friendly,no_target,,,,,,,,,,,,,,,,,,
,,,,,275059,f,y,r,n,13,0,2025-04-01_20h42.48.210,VisualSearchFaces,2024.2.4,Win32,60.24096386,,,,,,,,366.3852,366.4834,366.4834,368.4886,practice2,j,1,0,20,20,6,1,1,top_left,neutral,threatening,0.8031,,,,,,,,,,,,,,,,,
,,,,,275059,f,y,r,n,13,0,2025-04-01_20h42.48.210,VisualSearchFaces,2024.2.4,Win32,60.24096386,,,,,,,,369.4853,369.5916,369.5917,371.5831,practice2,f,1,0,21,21,23,1,0,bottom_left,neutral,no_target,1.7789,,,,,,,,,,,,,,,,,
,,,,,275059,f,y,r,n,13,0,2025-04-01_20h42.48.210,VisualSearchFaces,2024.2.4,Win32,60.24096386,,,,,,,,372.5964,372.7139,372.714,374.7218,practice2,j,0,0,22,22,30,1,0,centre,friendly,no_target,1.6518,,,,,,,,,,,,,,,,,
,,,,,275059,f,y,r,n,13,0,2025-04-01_20h42.48.210,VisualSearchFaces,2024.2.4,Win32,60.24096386,,,,,,,,375.7154,375.8305,375.8305,377.8274,practice2,j,1,0,23,23,16,1,1,top_left,threatening,neutral,0.6741,,,,,,,,,,,,,,,,,
,,,,,275059,f,y,r,n,13,0,2025-04-01_20h42.48.210,VisualSearchFaces,2024.2.4,Win32,60.24096386,,,,,,,,378.8421,378.9394,378.9394,380.9422,practice2,j,1,0,24,24,2,1,1,top_right,neutral,friendly,0.5961,,,,,,,,,,,,,,,,,
,,,,,275059,f,y,r,n,13,0,2025-04-01_20h42.48.210,VisualSearchFaces,2024.2.4,Win32,60.24096386,,,,,,,,381.9476,382.0647,382.0647,384.065,practice2,f,0,0,25,25,0,1,1,centre,neutral,friendly,1.1664,,,,,,,,,,,,,,,,,
,,,,,275059,f,y,r,n,13,0,2025-04-01_20h42.48.210,VisualSearchFaces,2024.2.4,Win32,60.24096386,,,,,,,,385.0652,385.1698,385.1699,387.1578,practice2,j,1,0,26,26,9,1,1,bottom_right,neutral,threatening,0.8618,,,,,,,,,,,,,,,,,
,,,,,275059,f,y,r,n,13,0,2025-04-01_20h42.48.210,VisualSearchFaces,2024.2.4,Win32,60.24096386,,,,,,,,388.1755,388.2746,388.2746,390.2873,practice2,j,0,0,27,27,36,1,0,top_left,threatening,no_target,0.9298,,,,,,,,,,,,,,,,,
,,,,,275059,f,y,r,n,13,0,2025-04-01_20h42.48.210,VisualSearchFaces,2024.2.4,Win32,60.24096386,,,,,,,,391.2826,391.3956,391.3958,393.3966,practice2,f,1,0,28,28,24,1,0,bottom_right,neutral,no_target,1.8056,,,,,,,,,,,,,,,,,
,,,,,275059,f,y,r,n,13,0,2025-04-01_20h42.48.210,VisualSearchFaces,2024.2.4,Win32,60.24096386,,,,,,,,394.4002,394.512,394.5121,396.5146,practice2,f,1,0,29,29,21,1,0,top_left,neutral,no_target,1.1833,,,,,,,,,,,,,,,,,
,,,,,275059,f,y,r,n,13,0,2025-04-01_20h42.48.210,VisualSearchFaces,2024.2.4,Win32,60.24096386,,,,,,,,397.5083,397.6179,397.618,399.6109,practice2,j,1,0,30,30,4,1,1,bottom_right,neutral,friendly,0.7365,,,,,,,,,,,,,,,,,
,,,,,275059,f,y,r,n,13,0,2025-04-01_20h42.48.210,VisualSearchFaces,2024.2.4,Win32,60.24096386,,,,,,,,400.6112,400.7211,400.7212,402.7094,practice2,j,0,0,31,31,39,1,0,bottom_right,threatening,no_target,0.8449,,,,,,,,,,,,,,,,,
,,,,,275059,f,y,r,n,13,0,2025-04-01_20h42.48.210,VisualSearchFaces,2024.2.4,Win32,60.24096386,,,,,,,,403.7006,403.8137,403.8148,405.8186,practice2,j,1,0,32,32,1,1,1,top_left,neutral,friendly,0.6221,,,,,,,,,,,,,,,,,
,,,,,275059,f,y,r,n,13,0,2025-04-01_20h42.48.210,VisualSearchFaces,2024.2.4,Win32,60.24096386,,,,,,,,406.8102,406.9161,406.9161,408.9227,practice2,j,1,0,33,33,10,1,1,centre,friendly,neutral,0.7902,,,,,,,,,,,,,,,,,
,,,,,275059,f,y,r,n,13,0,2025-04-01_20h42.48.210,VisualSearchFaces,2024.2.4,Win32,60.24096386,,,,,,,,409.9047,410.0087,410.0088,412.0115,practice2,,0,0,34,34,3,1,1,bottom_left,neutral,friendly,,,,,,,,,,,,,,,,,,
,,,,,275059,f,y,r,n,13,0,2025-04-01_20h42.48.210,VisualSearchFaces,2024.2.4,Win32,60.24096386,,,,,,,,413.0171,413.1155,413.1155,415.1043,practice2,j,0,0,35,35,37,1,0,top_right,threatening,no_target,0.7785,,,,,,,,,,,,,,,,,
,,,,,275059,f,y,r,n,13,0,2025-04-01_20h42.48.210,VisualSearchFaces,2024.2.4,Win32,60.24096386,,,,,,,,416.1144,416.2182,416.2183,418.1961,practice2,j,1,0,36,36,18,1,1,bottom_left,threatening,neutral,0.9138,,,,,,,,,,,,,,,,,
,,,,,275059,f,y,r,n,13,0,2025-04-01_20h42.48.210,VisualSearchFaces,2024.2.4,Win32,60.24096386,,,,,,,,419.2054,419.3169,419.3169,421.3084,practice2,j,1,0,37,37,14,1,1,bottom_right,friendly,neutral,0.8611,,,,,,,,,,,,,,,,,
,,,,,275059,f,y,r,n,13,0,2025-04-01_20h42.48.210,VisualSearchFaces,2024.2.4,Win32,60.24096386,,,,,,,,422.3146,422.4228,422.4228,424.4281,practice2,j,1,0,38,38,12,1,1,top_right,friendly,neutral,1.0173,,,,,,,,,,,,,,,,,
,,,,,275059,f,y,r,n,13,0,2025-04-01_20h42.48.210,VisualSearchFaces,2024.2.4,Win32,60.24096386,,,,,,,,425.4322,425.5306,425.5308,427.5301,practice2,f,1,0,39,39,29,1,0,bottom_right,neutral,no_target,1.2232,,,,,,,,,,,,,,,,,
,,,,,275059,f,y,r,n,13,0,2025-04-01_20h42.48.210,VisualSearchFaces,2024.2.4,Win32,60.24096386,,,456.8043,460.5168,space,3.6683,,461.5176,461.625,461.6251,463.6167,block1,j,0,0,0,0,24,1,0,bottom_right,neutral,no_target,1.5914,,427.5347,456.7963,space,29.2258,,,,,,,,,,,,
,,,,,275059,f,y,r,n,13,0,2025-04-01_20h42.48.210,VisualSearchFaces,2024.2.4,Win32,60.24096386,,,,,,,,464.625,464.7357,464.7358,466.7239,block1,j,0,0,1,1,26,1,0,top_left,neutral,no_target,1.1115,,,,,,,,,,,,,,,,,
,,,,,275059,f,y,r,n,13,0,2025-04-01_20h42.48.210,VisualSearchFaces,2024.2.4,Win32,60.24096386,,,,,,,,467.7326,467.8406,467.8406,469.8506,block1,j,1,0,2,2,15,1,1,centre,threatening,neutral,0.5841,,,,,,,,,,,,,,,,,
,,,,,275059,f,y,r,n,13,0,2025-04-01_20h42.48.210,VisualSearchFaces,2024.2.4,Win32,60.24096386,,,,,,,,470.8413,470.9421,470.9422,472.9409,block1,j,1,0,3,3,3,1,1,bottom_left,neutral,friendly,1.037,,,,,,,,,,,,,,,,,
,,,,,275059,f,y,r,n,13,0,2025-04-01_20h42.48.210,VisualSearchFaces,2024.2.4,Win32,60.24096386,,,,,,,,473.9653,474.0793,474.0794,476.0688,block1,f,1,0,4,4,20,1,0,centre,neutral,no_target,0.695,,,,,,,,,,,,,,,,,
,,,,,275059,f,y,r,n,13,0,2025-04-01_20h42.48.210,VisualSearchFaces,2024.2.4,Win32,60.24096386,,,,,,,,477.0764,477.1803,477.1804,479.1724,block1,j,0,0,5,5,37,1,0,top_right,threatening,no_target,0.8348,,,,,,,,,,,,,,,,,
,,,,,275059,f,y,r,n,13,0,2025-04-01_20h42.48.210,VisualSearchFaces,2024.2.4,Win32,60.24096386,,,,,,,,480.1879,480.2885,480.2886,482.2944,block1,j,1,0,6,6,5,1,1,centre,neutral,threatening,0.7191,,,,,,,,,,,,,,,,,
,,,,,275059,f,y,r,n,13,0,2025-04-01_20h42.48.210,VisualSearchFaces,2024.2.4,Win32,60.24096386,,,,,,,,483.274,483.3797,483.3797,485.3822,block1,j,1,0,7,7,1,1,1,top_left,neutral,friendly,0.7335,,,,,,,,,,,,,,,,,
,,,,,275059,f,y,r,n,13,0,2025-04-01_20h42.48.210,VisualSearchFaces,2024.2.4,Win32,60.24096386,,,,,,,,486.3868,486.4878,486.4879,488.4832,block1,j,1,0,8,8,17,1,1,top_right,threatening,neutral,0.5849,,,,,,,,,,,,,,,,,
,,,,,275059,f,y,r,n,13,0,2025-04-01_20h42.48.210,VisualSearchFaces,2024.2.4,Win32,60.24096386,,,,,,,,489.4837,489.595,489.5951,491.5876,block1,j,1,0,9,9,16,1,1,top_left,threatening,neutral,0.7438,,,,,,,,,,,,,,,,,
,,,,,275059,f,y,r,n,13,0,2025-04-01_20h42.48.210,VisualSearchFaces,2024.2.4,Win32,60.24096386,,,,,,,,492.6036,492.7102,492.7103,494.7153,block1,j,1,0,10,10,7,1,1,top_right,neutral,threatening,0.7022,,,,,,,,,,,,,,,,,
,,,,,275059,f,y,r,n,13,0,2025-04-01_20h42.48.210,VisualSearchFaces,2024.2.4,Win32,60.24096386,,,,,,,,495.7222,495.8192,495.8192,497.7989,block1,j,0,0,11,11,34,1,0,bottom_right,friendly,no_target,0.5271,,,,,,,,,,,,,,,,,
,,,,,275059,f,y,r,n,13,0,2025-04-01_20h42.48.210,VisualSearchFaces,2024.2.4,Win32,60.24096386,,,,,,,,498.8288,498.9407,498.9409,500.9332,block1,f,1,0,12,12,22,1,0,top_right,neutral,no_target,0.7106,,,,,,,,,,,,,,,,,
,,,,,275059,f,y,r,n,13,0,2025-04-01_20h42.48.210,VisualSearchFaces,2024.2.4,Win32,60.24096386,,,,,,,,501.9209,502.0278,502.0279,504.0312,block1,j,1,0,13,13,14,1,1,bottom_right,friendly,neutral,0.8111,,,,,,,,,,,,,,,,,
,,,,,275059,f,y,r,n,13,0,2025-04-01_20h42.48.210,VisualSearchFaces,2024.2.4,Win32,60.24096386,,,,,,,,505.023,505.1444,505.1444,507.1369,block1,j,0,0,14,14,32,1,0,top_right,friendly,no_target,0.6389,,,,,,,,,,,,,,,,,
,,,,,275059,f,y,r,n,13,0,2025-04-01_20h42.48.210,VisualSearchFaces,2024.2.4,Win32,60.24096386,,,,,,,,508.1347,508.2517,508.2517,510.2486,block1,j,1,0,15,15,10,1,1,centre,friendly,neutral,0.6659,,,,,,,,,,,,,,,,,
,,,,,275059,f,y,r,n,13,0,2025-04-01_20h42.48.210,VisualSearchFaces,2024.2.4,Win32,60.24096386,,,,,,,,511.2356,511.3453,511.3453,513.3473,block1,j,1,0,16,16,11,1,1,top_left,friendly,neutral,0.5348,,,,,,,,,,,,,,,,,
,,,,,275059,f,y,r,n,13,0,2025-04-01_20h42.48.210,VisualSearchFaces,2024.2.4,Win32,60.24096386,,,,,,,,514.3519,514.4521,514.4521,516.4336,block1,j,1,0,17,17,2,1,1,top_right,neutral,friendly,0.6464,,,,,,,,,,,,,,,,,
,,,,,275059,f,y,r,n,13,0,2025-04-01_20h42.48.210,VisualSearchFaces,2024.2.4,Win32,60.24096386,,,,,,,,517.4654,517.5782,517.5783,519.5698,block1,j,1,0,18,18,9,1,1,bottom_right,neutral,threatening,1.0556,,,,,,,,,,,,,,,,,
,,,,,275059,f,y,r,n,13,0,2025-04-01_20h42.48.210,VisualSearchFaces,2024.2.4,Win32,60.24096386,,,,,,,,520.5905,520.704,520.7041,522.6938,block1,j,0,0,19,19,38,1,0,bottom_left,threatening,no_target,0.697,,,,,,,,,,,,,,,,,
,,,,,275059,f,y,r,n,13,0,2025-04-01_20h42.48.210,VisualSearchFaces,2024.2.4,Win32,60.24096386,,,,,,,,523.6912,523.7935,523.7936,525.7965,block1,f,1,0,20,20,25,1,0,centre,neutral,no_target,0.7324,,,,,,,,,,,,,,,,,
,,,,,275059,f,y,r,n,13,0,2025-04-01_20h42.48.210,VisualSearchFaces,2024.2.4,Win32,60.24096386,,,,,,,,526.7724,526.8803,526.8803,528.8736,block1,j,0,0,21,21,31,1,0,top_left,friendly,no_target,0.6817,,,,,,,,,,,,,,,,,
,,,,,275059,f,y,r,n,13,0,2025-04-01_20h42.48.210,VisualSearchFaces,2024.2.4,Win32,60.24096386,,,,,,,,529.8796,529.9833,529.9834,531.9801,block1,j,1,0,22,22,6,1,1,top_left,neutral,threatening,0.8884,,,,,,,,,,,,,,,,,
,,,,,275059,f,y,r,n,13,0,2025-04-01_20h42.48.210,VisualSearchFaces,2024.2.4,Win32,60.24096386,,,,,,,,532.9722,533.0731,533.0732,535.0744,block1,j,1,0,23,23,19,1,1,bottom_right,threatening,neutral,0.6746,,,,,,,,,,,,,,,,,
,,,,,275059,f,y,r,n,13,0,2025-04-01_20h42.48.210,VisualSearchFaces,2024.2.4,Win32,60.24096386,,,,,,,,536.0661,536.1788,536.1789,538.1789,block1,f,0,0,24,24,4,1,1,bottom_right,neutral,friendly,0.6847,,,,,,,,,,,,,,,,,
,,,,,275059,f,y,r,n,13,0,2025-04-01_20h42.48.210,VisualSearchFaces,2024.2.4,Win32,60.24096386,,,,,,,,539.1729,539.2689,539.269,541.2729,block1,j,1,0,25,25,12,1,1,top_right,friendly,neutral,0.8725,,,,,,,,,,,,,,,,,
,,,,,275059,f,y,r,n,13,0,2025-04-01_20h42.48.210,VisualSearchFaces,2024.2.4,Win32,60.24096386,,,,,,,,542.2827,542.3954,542.3956,544.3936,block1,j,1,0,26,26,0,1,1,centre,neutral,friendly,0.6133,,,,,,,,,,,,,,,,,
,,,,,275059,f,y,r,n,13,0,2025-04-01_20h42.48.210,VisualSearchFaces,2024.2.4,Win32,60.24096386,,,,,,,,545.3904,545.5053,545.5054,547.5082,block1,f,1,0,27,27,21,1,0,top_left,neutral,no_target,0.7783,,,,,,,,,,,,,,,,,
,,,,,275059,f,y,r,n,13,0,2025-04-01_20h42.48.210,VisualSearchFaces,2024.2.4,Win32,60.24096386,,,,,,,,548.4917,548.6039,548.6041,550.6095,block1,j,0,0,28,28,30,1,0,centre,friendly,no_target,0.5263,,,,,,,,,,,,,,,,,
,,,,,275059,f,y,r,n,13,0,2025-04-01_20h42.48.210,VisualSearchFaces,2024.2.4,Win32,60.24096386,,,,,,,,551.603,551.7004,551.7005,553.6907,block1,j,0,0,29,29,35,1,0,centre,threatening,no_target,0.6131,,,,,,,,,,,,,,,,,
,,,,,275059,f,y,r,n,13,0,2025-04-01_20h42.48.210,VisualSearchFaces,2024.2.4,Win32,60.24096386,,,,,,,,554.6999,554.7967,554.7968,556.7972,block1,j,1,0,30,30,18,1,1,bottom_left,threatening,neutral,0.5918,,,,,,,,,,,,,,,,,
,,,,,275059,f,y,r,n,13,0,2025-04-01_20h42.48.210,VisualSearchFaces,2024.2.4,Win32,60.24096386,,,,,,,,557.8081,557.9121,557.9121,559.9075,block1,j,0,0,31,31,39,1,0,bottom_right,threatening,no_target,0.6443,,,,,,,,,,,,,,,,,
,,,,,275059,f,y,r,n,13,0,2025-04-01_20h42.48.210,VisualSearchFaces,2024.2.4,Win32,60.24096386,,,,,,,,560.9127,561.013,561.0131,563.0124,block1,f,0,0,32,32,8,1,1,bottom_left,neutral,threatening,0.7569,,,,,,,,,,,,,,,,,
,,,,,275059,f,y,r,n,13,0,2025-04-01_20h42.48.210,VisualSearchFaces,2024.2.4,Win32,60.24096386,,,,,,,,564.0062,564.1174,564.1178,566.1273,block1,f,1,0,33,33,29,1,0,bottom_right,neutral,no_target,0.6796,,,,,,,,,,,,,,,,,
,,,,,275059,f,y,r,n,13,0,2025-04-01_20h42.48.210,VisualSearchFaces,2024.2.4,Win32,60.24096386,,,,,,,,567.1217,567.2314,567.2315,569.221,block1,j,0,0,34,34,36,1,0,top_left,threatening,no_target,0.6765,,,,,,,,,,,,,,,,,
,,,,,275059,f,y,r,n,13,0,2025-04-01_20h42.48.210,VisualSearchFaces,2024.2.4,Win32,60.24096386,,,,,,,,570.2444,570.3559,570.356,572.3611,block1,j,0,0,35,35,33,1,0,bottom_left,friendly,no_target,1.0288,,,,,,,,,,,,,,,,,
,,,,,275059,f,y,r,n,13,0,2025-04-01_20h42.48.210,VisualSearchFaces,2024.2.4,Win32,60.24096386,,,,,,,,573.3688,573.4663,573.4664,575.4631,block1,f,1,0,36,36,28,1,0,bottom_left,neutral,no_target,0.7037,,,,,,,,,,,,,,,,,
,,,,,275059,f,y,r,n,13,0,2025-04-01_20h42.48.210,VisualSearchFaces,2024.2.4,Win32,60.24096386,,,,,,,,576.4543,576.5538,576.5542,578.5591,block1,f,0,0,37,37,13,1,1,bottom_left,friendly,neutral,0.7322,,,,,,,,,,,,,,,,,
,,,,,275059,f,y,r,n,13,0,2025-04-01_20h42.48.210,VisualSearchFaces,2024.2.4,Win32,60.24096386,,,,,,,,579.565,579.6618,579.6619,581.6649,block1,j,0,0,38,38,23,1,0,bottom_left,neutral,no_target,0.6672,,,,,,,,,,,,,,,,,
,,,,,275059,f,y,r,n,13,0,2025-04-01_20h42.48.210,VisualSearchFaces,2024.2.4,Win32,60.24096386,,,,,,,,582.6704,582.7772,582.7773,584.7795,block1,f,1,0,39,39,27,1,0,top_right,neutral,no_target,0.6009,,,,,,,,,,,,,,,,,
,,,,,275059,f,y,r,n,13,0,2025-04-01_20h42.48.210,VisualSearchFaces,2024.2.4,Win32,60.24096386,,,,,,,,585.7773,585.8737,585.8738,587.8764,block1,j,1,1,0,40,2,1,1,top_right,neutral,friendly,0.7293,,,,,,,,,,,,,,,,,
,,,,,275059,f,y,r,n,13,0,2025-04-01_20h42.48.210,VisualSearchFaces,2024.2.4,Win32,60.24096386,,,,,,,,588.8667,588.9649,588.9649,590.9735,block1,f,1,1,1,41,34,1,0,bottom_right,friendly,no_target,1.4709,,,,,,,,,,,,,,,,,
,,,,,275059,f,y,r,n,13,0,2025-04-01_20h42.48.210,VisualSearchFaces,2024.2.4,Win32,60.24096386,,,,,,,,591.9664,592.0693,592.0693,594.0471,block1,j,0,1,2,42,39,1,0,bottom_right,threatening,no_target,0.8457,,,,,,,,,,,,,,,,,
,,,,,275059,f,y,r,n,13,0,2025-04-01_20h42.48.210,VisualSearchFaces,2024.2.4,Win32,60.24096386,,,,,,,,595.0688,595.173,595.1731,597.1646,block1,f,0,1,3,43,3,1,1,bottom_left,neutral,friendly,0.7752,,,,,,,,,,,,,,,,,
,,,,,275059,f,y,r,n,13,0,2025-04-01_20h42.48.210,VisualSearchFaces,2024.2.4,Win32,60.24096386,,,,,,,,598.1849,598.2964,598.2966,600.3028,block1,f,1,1,4,44,27,1,0,top_right,neutral,no_target,0.5909,,,,,,,,,,,,,,,,,
,,,,,275059,f,y,r,n,13,0,2025-04-01_20h42.48.210,VisualSearchFaces,2024.2.4,Win32,60.24096386,,,,,,,,601.3124,601.4127,601.4128,603.4011,block1,j,1,1,5,45,1,1,1,top_left,neutral,friendly,0.6433,,,,,,,,,,,,,,,,,
,,,,,275059,f,y,r,n,13,0,2025-04-01_20h42.48.210,VisualSearchFaces,2024.2.4,Win32,60.24096386,,,,,,,,604.4206,604.5313,604.5314,606.5334,block1,f,1,1,6,46,21,1,0,top_left,neutral,no_target,0.588,,,,,,,,,,,,,,,,,
,,,,,275059,f,y,r,n,13,0,2025-04-01_20h42.48.210,VisualSearchFaces,2024.2.4,Win32,60.24096386,,,,,,,,607.5137,607.6187,607.6188,609.6182,block1,j,1,1,7,47,5,1,1,centre,neutral,threatening,0.6562,,,,,,,,,,,,,,,,,
,,,,,275059,f,y,r,n,13,0,2025-04-01_20h42.48.210,VisualSearchFaces,2024.2.4,Win32,60.24096386,,,,,,,,610.6281,610.7422,610.7423,612.7362,block1,j,1,1,8,48,8,1,1,bottom_left,neutral,threatening,1.241,,,,,,,,,,,,,,,,,
,,,,,275059,f,y,r,n,13,0,2025-04-01_20h42.48.210,VisualSearchFaces,2024.2.4,Win32,60.24096386,,,,,,,,613.7417,613.8395,613.8396,615.8304,block1,j,1,1,9,49,17,1,1,top_right,threatening,neutral,1.252,,,,,,,,,,,,,,,,,
,,,,,275059,f,y,r,n,13,0,2025-04-01_20h42.48.210,VisualSearchFaces,2024.2.4,Win32,60.24096386,,,,,,,,616.8623,616.9574,616.9575,618.949,block1,f,1,1,10,50,22,1,0,top_right,neutral,no_target,0.5416,,,,,,,,,,,,,,,,,
,,,,,275059,f,y,r,n,13,0,2025-04-01_20h42.48.210,VisualSearchFaces,2024.2.4,Win32,60.24096386,,,,,,,,619.9502,620.0789,620.0789,622.0756,block1,f,1,1,11,51,24,1,0,bottom_right,neutral,no_target,0.5813,,,,,,,,,,,,,,,,,
,,,,,275059,f,y,r,n,13,0,2025-04-01_20h42.48.210,VisualSearchFaces,2024.2.4,Win32,60.24096386,,,,,,,,623.0638,623.1692,623.1692,625.1595,block1,f,0,1,12,52,18,1,1,bottom_left,threatening,neutral,0.9584,,,,,,,,,,,,,,,,,
,,,,,275059,f,y,r,n,13,0,2025-04-01_20h42.48.210,VisualSearchFaces,2024.2.4,Win32,60.24096386,,,,,,,,626.1716,626.2859,626.2859,628.279,block1,j,0,1,13,53,37,1,0,top_right,threatening,no_target,0.7835,,,,,,,,,,,,,,,,,
,,,,,275059,f,y,r,n,13,0,2025-04-01_20h42.48.210,VisualSearchFaces,2024.2.4,Win32,60.24096386,,,,,,,,629.281,629.3897,629.3898,631.3894,block1,j,1,1,14,54,19,1,1,bottom_right,threatening,neutral,0.6807,,,,,,,,,,,,,,,,,
,,,,,275059,f,y,r,n,13,0,2025-04-01_20h42.48.210,VisualSearchFaces,2024.2.4,Win32,60.24096386,,,,,,,,632.3698,632.4706,632.4707,634.4725,block1,j,0,1,15,55,38,1,0,bottom_left,threatening,no_target,0.6665,,,,,,,,,,,,,,,,,
,,,,,275059,f,y,r,n,13,0,2025-04-01_20h42.48.210,VisualSearchFaces,2024.2.4,Win32,60.24096386,,,,,,,,635.4773,635.5755,635.5755,637.5723,block1,f,1,1,16,56,25,1,0,centre,neutral,no_target,0.7655,,,,,,,,,,,,,,,,,
,,,,,275059,f,y,r,n,13,0,2025-04-01_20h42.48.210,VisualSearchFaces,2024.2.4,Win32,60.24096386,,,,,,,,638.5973,638.7076,638.7077,640.705,block1,j,1,1,17,57,4,1,1,bottom_right,neutral,friendly,0.9096,,,,,,,,,,,,,,,,,
,,,,,275059,f,y,r,n,13,0,2025-04-01_20h42.48.210,VisualSearchFaces,2024.2.4,Win32,60.24096386,,,,,,,,641.72,641.8177,641.8178,643.8088,block1,f,1,1,18,58,31,1,0,top_left,friendly,no_target,1.369,,,,,,,,,,,,,,,,,
,,,,,275059,f,y,r,n,13,0,2025-04-01_20h42.48.210,VisualSearchFaces,2024.2.4,Win32,60.24096386,,,,,,,,644.8127,644.9248,644.9248,646.9256,block1,f,1,1,19,59,33,1,0,bottom_left,friendly,no_target,1.9485,,,,,,,,,,,,,,,,,
,,,,,275059,f,y,r,n,13,0,2025-04-01_20h42.48.210,VisualSearchFaces,2024.2.4,Win32,60.24096386,,,,,,,,647.9314,648.0362,648.0362,650.0328,block1,f,1,1,20,60,23,1,0,bottom_left,neutral,no_target,0.7386,,,,,,,,,,,,,,,,,
,,,,,275059,f,y,r,n,13,0,2025-04-01_20h42.48.210,VisualSearchFaces,2024.2.4,Win32,60.24096386,,,,,,,,651.0297,651.1379,651.1379,653.1131,block1,j,1,1,21,61,9,1,1,bottom_right,neutral,threatening,0.6832,,,,,,,,,,,,,,,,,
,,,,,275059,f,y,r,n,13,0,2025-04-01_20h42.48.210,VisualSearchFaces,2024.2.4,Win32,60.24096386,,,,,,,,654.1383,654.235,654.2351,656.2345,block1,f,0,1,22,62,16,1,1,top_left,threatening,neutral,0.916,,,,,,,,,,,,,,,,,
,,,,,275059,f,y,r,n,13,0,2025-04-01_20h42.48.210,VisualSearchFaces,2024.2.4,Win32,60.24096386,,,,,,,,657.237,657.3339,657.3339,659.337,block1,f,1,1,23,63,26,1,0,top_left,neutral,no_target,0.9839,,,,,,,,,,,,,,,,,
,,,,,275059,f,y,r,n,13,0,2025-04-01_20h42.48.210,VisualSearchFaces,2024.2.4,Win32,60.24096386,,,,,,,,660.3238,660.4203,660.4204,662.3975,block1,f,0,1,24,64,7,1,1,top_right,neutral,threatening,0.7521,,,,,,,,,,,,,,,,,
,,,,,275059,f,y,r,n,13,0,2025-04-01_20h42.48.210,VisualSearchFaces,2024.2.4,Win32,60.24096386,,,,,,,,663.417,663.5289,663.5289,665.5198,block1,j,1,1,25,65,0,1,1,centre,neutral,friendly,0.7286,,,,,,,,,,,,,,,,,
,,,,,275059,f,y,r,n,13,0,2025-04-01_20h42.48.210,VisualSearchFaces,2024.2.4,Win32,60.24096386,,,,,,,,666.5251,666.6277,666.6278,668.6219,block1,j,1,1,26,66,14,1,1,bottom_right,friendly,neutral,0.8229,,,,,,,,,,,,,,,,,
,,,,,275059,f,y,r,n,13,0,2025-04-01_20h42.48.210,VisualSearchFaces,2024.2.4,Win32,60.24096386,,,,,,,,669.6141,669.7118,669.7119,671.708,block1,j,1,1,27,67,13,1,1,bottom_left,friendly,neutral,0.7252,,,,,,,,,,,,,,,,,
,,,,,275059,f,y,r,n,13,0,2025-04-01_20h42.48.210,VisualSearchFaces,2024.2.4,Win32,60.24096386,,,,,,,,672.7034,672.8117,672.8117,674.8099,block1,f,1,1,28,68,30,1,0,centre,friendly,no_target,1.1404,,,,,,,,,,,,,,,,,
,,,,,275059,f,y,r,n,13,0,2025-04-01_20h42.48.210,VisualSearchFaces,2024.2.4,Win32,60.24096386,,,,,,,,675.812,675.9158,675.9159,677.91,block1,j,0,1,29,69,36,1,0,top_left,threatening,no_target,1.0269,,,,,,,,,,,,,,,,,
,,,,,275059,f,y,r,n,13,0,2025-04-01_20h42.48.210,VisualSearchFaces,2024.2.4,Win32,60.24096386,,,,,,,,678.9288,679.0336,679.0336,681.029,block1,f,1,1,30,70,28,1,0,bottom_left,neutral,no_target,0.8196,,,,,,,,,,,,,,,,,
,,,,,275059,f,y,r,n,13,0,2025-04-01_20h42.48.210,VisualSearchFaces,2024.2.4,Win32,60.24096386,,,,,,,,682.0389,682.1601,682.1601,684.1646,block1,f,1,1,31,71,35,1,0,centre,threatening,no_target,1.395,,,,,,,,,,,,,,,,,
,,,,,275059,f,y,r,n,13,0,2025-04-01_20h42.48.210,VisualSearchFaces,2024.2.4,Win32,60.24096386,,,,,,,,685.1524,685.2618,685.2618,687.2682,block1,f,1,1,32,72,20,1,0,centre,neutral,no_target,1.0213,,,,,,,,,,,,,,,,,
,,,,,275059,f,y,r,n,13,0,2025-04-01_20h42.48.210,VisualSearchFaces,2024.2.4,Win32,60.24096386,,,,,,,,688.2676,688.3696,688.3696,690.3752,block1,j,1,1,33,73,10,1,1,centre,friendly,neutral,0.6022,,,,,,,,,,,,,,,,,
,,,,,275059,f,y,r,n,13,0,2025-04-01_20h42.48.210,VisualSearchFaces,2024.2.4,Win32,60.24096386,,,,,,,,691.3627,691.4765,691.4767,693.4782,block1,j,1,1,34,74,6,1,1,top_left,neutral,threatening,0.7429,,,,,,,,,,,,,,,,,
,,,,,275059,f,y,r,n,13,0,2025-04-01_20h42.48.210,VisualSearchFaces,2024.2.4,Win32,60.24096386,,,,,,,,694.4767,694.5829,694.583,696.5915,block1,j,1,1,35,75,12,1,1,top_right,friendly,neutral,0.7169,,,,,,,,,,,,,,,,,
,,,,,275059,f,y,r,n,13,0,2025-04-01_20h42.48.210,VisualSearchFaces,2024.2.4,Win32,60.24096386,,,,,,,,697.5903,697.6923,697.6924,699.6842,block1,f,1,1,36,76,32,1,0,top_right,friendly,no_target,0.8835,,,,,,,,,,,,,,,,,
,,,,,275059,f,y,r,n,13,0,2025-04-01_20h42.48.210,VisualSearchFaces,2024.2.4,Win32,60.24096386,,,,,,,,700.6943,700.7898,700.7901,702.7925,block1,f,1,1,37,77,29,1,0,bottom_right,neutral,no_target,0.9995,,,,,,,,,,,,,,,,,
,,,,,275059,f,y,r,n,13,0,2025-04-01_20h42.48.210,VisualSearchFaces,2024.2.4,Win32,60.24096386,,,,,,,,703.7943,703.8923,703.8924,705.8924,block1,j,1,1,38,78,15,1,1,centre,threatening,neutral,0.965,,,,,,,,,,,,,,,,,
,,,,,275059,f,y,r,n,13,0,2025-04-01_20h42.48.210,VisualSearchFaces,2024.2.4,Win32,60.24096386,,,,,,,,706.8948,706.9943,706.9944,708.9796,block1,j,1,1,39,79,11,1,1,top_left,friendly,neutral,0.9114,,,,,,,,,,,,,,,,,
,,,,,275059,f,y,r,n,13,0,2025-04-01_20h42.48.210,VisualSearchFaces,2024.2.4,Win32,60.24096386,,,756.5034,759.4953,space,2.8916,,760.4979,760.6001,760.6002,762.5798,block2,f,1,0,0,0,27,1,0,top_right,neutral,no_target,0.7904,,708.9852,756.4986,space,47.468,,,,,,,,,,,,
,,,,,275059,f,y,r,n,13,0,2025-04-01_20h42.48.210,VisualSearchFaces,2024.2.4,Win32,60.24096386,,,,,,,,763.5867,763.6901,763.6901,765.6912,block2,j,0,0,1,1,35,1,0,centre,threatening,no_target,1.738,,,,,,,,,,,,,,,,,
,,,,,275059,f,y,r,n,13,0,2025-04-01_20h42.48.210,VisualSearchFaces,2024.2.4,Win32,60.24096386,,,,,,,,766.7093,766.8205,766.8206,768.8272,block2,f,1,0,2,2,31,1,0,top_left,friendly,no_target,1.7325,,,,,,,,,,,,,,,,,
,,,,,275059,f,y,r,n,13,0,2025-04-01_20h42.48.210,VisualSearchFaces,2024.2.4,Win32,60.24096386,,,,,,,,769.8016,769.9011,769.9013,771.8922,block2,f,1,0,3,3,25,1,0,centre,neutral,no_target,0.8703,,,,,,,,,,,,,,,,,
,,,,,275059,f,y,r,n,13,0,2025-04-01_20h42.48.210,VisualSearchFaces,2024.2.4,Win32,60.24096386,,,,,,,,772.8844,772.9925,772.9926,774.9763,block2,f,1,0,4,4,24,1,0,bottom_right,neutral,no_target,0.6467,,,,,,,,,,,,,,,,,
,,,,,275059,f,y,r,n,13,0,2025-04-01_20h42.48.210,VisualSearchFaces,2024.2.4,Win32,60.24096386,,,,,,,,775.9915,776.1001,776.1002,778.1074,block2,j,1,0,5,5,15,1,1,centre,threatening,neutral,0.5587,,,,,,,,,,,,,,,,,
,,,,,275059,f,y,r,n,13,0,2025-04-01_20h42.48.210,VisualSearchFaces,2024.2.4,Win32,60.24096386,,,,,,,,779.1136,779.2433,779.2434,781.243,block2,j,1,0,6,6,4,1,1,bottom_right,neutral,friendly,0.6745,,,,,,,,,,,,,,,,,
,,,,,275059,f,y,r,n,13,0,2025-04-01_20h42.48.210,VisualSearchFaces,2024.2.4,Win32,60.24096386,,,,,,,,782.2313,782.343,782.3432,784.3309,block2,j,1,0,7,7,8,1,1,bottom_left,neutral,threatening,0.988,,,,,,,,,,,,,,,,,
,,,,,275059,f,y,r,n,13,0,2025-04-01_20h42.48.210,VisualSearchFaces,2024.2.4,Win32,60.24096386,,,,,,,,785.3375,785.4496,785.4496,787.457,block2,f,1,0,8,8,21,1,0,top_left,neutral,no_target,0.6142,,,,,,,,,,,,,,,,,
,,,,,275059,f,y,r,n,13,0,2025-04-01_20h42.48.210,VisualSearchFaces,2024.2.4,Win32,60.24096386,,,,,,,,788.4639,788.5752,788.5753,790.5612,block2,j,1,0,9,9,18,1,1,bottom_left,threatening,neutral,0.7292,,,,,,,,,,,,,,,,,
,,,,,275059,f,y,r,n,13,0,2025-04-01_20h42.48.210,VisualSearchFaces,2024.2.4,Win32,60.24096386,,,,,,,,791.5764,791.6757,791.6758,793.6568,block2,j,0,0,10,10,32,1,0,top_right,friendly,no_target,0.8494,,,,,,,,,,,,,,,,,
,,,,,275059,f,y,r,n,13,0,2025-04-01_20h42.48.210,VisualSearchFaces,2024.2.4,Win32,60.24096386,,,,,,,,794.6751,794.7897,794.7898,796.7794,block2,f,0,0,11,11,5,1,1,centre,neutral,threatening,0.663,,,,,,,,,,,,,,,,,
,,,,,275059,f,y,r,n,13,0,2025-04-01_20h42.48.210,VisualSearchFaces,2024.2.4,Win32,60.24096386,,,,,,,,797.785,797.8908,797.8909,799.8784,block2,j,1,0,12,12,12,1,1,top_right,friendly,neutral,0.8059,,,,,,,,,,,,,,,,,
,,,,,275059,f,y,r,n,13,0,2025-04-01_20h42.48.210,VisualSearchFaces,2024.2.4,Win32,60.24096386,,,,,,,,800.8838,800.9832,800.9832,802.9896,block2,j,0,0,13,13,33,1,0,bottom_left,friendly,no_target,0.9428,,,,,,,,,,,,,,,,,
,,,,,275059,f,y,r,n,13,0,2025-04-01_20h42.48.210,VisualSearchFaces,2024.2.4,Win32,60.24096386,,,,,,,,803.9775,804.0771,804.0772,806.0782,block2,j,0,0,14,14,36,1,0,top_left,threatening,no_target,1.1146,,,,,,,,,,,,,,,,,
,,,,,275059,f,y,r,n,13,0,2025-04-01_20h42.48.210,VisualSearchFaces,2024.2.4,Win32,60.24096386,,,,,,,,807.0713,807.1745,807.1745,809.173,block2,f,1,0,15,15,29,1,0,bottom_right,neutral,no_target,0.9053,,,,,,,,,,,,,,,,,
,,,,,275059,f,y,r,n,13,0,2025-04-01_20h42.48.210,VisualSearchFaces,2024.2.4,Win32,60.24096386,,,,,,,,810.1624,810.2637,810.2637,812.2534,block2,j,1,0,16,16,7,1,1,top_right,neutral,threatening,0.5518,,,,,,,,,,,,,,,,,
,,,,,275059,f,y,r,n,13,0,2025-04-01_20h42.48.210,VisualSearchFaces,2024.2.4,Win32,60.24096386,,,,,,,,813.2733,813.3779,813.378,815.3614,block2,j,1,0,17,17,9,1,1,bottom_right,neutral,threatening,0.5069,,,,,,,,,,,,,,,,,
,,,,,275059,f,y,r,n,13,0,2025-04-01_20h42.48.210,VisualSearchFaces,2024.2.4,Win32,60.24096386,,,,,,,,816.3792,816.4875,816.4875,818.4651,block2,j,1,0,18,18,6,1,1,top_left,neutral,threatening,0.568,,,,,,,,,,,,,,,,,
,,,,,275059,f,y,r,n,13,0,2025-04-01_20h42.48.210,VisualSearchFaces,2024.2.4,Win32,60.24096386,,,,,,,,819.4888,819.5859,819.5859,821.5817,block2,j,1,0,19,19,1,1,1,top_left,neutral,friendly,0.5879,,,,,,,,,,,,,,,,,
,,,,,275059,f,y,r,n,13,0,2025-04-01_20h42.48.210,VisualSearchFaces,2024.2.4,Win32,60.24096386,,,,,,,,822.5844,822.6837,822.6838,824.6774,block2,j,0,0,20,20,38,1,0,bottom_left,threatening,no_target,0.4251,,,,,,,,,,,,,,,,,
,,,,,275059,f,y,r,n,13,0,2025-04-01_20h42.48.210,VisualSearchFaces,2024.2.4,Win32,60.24096386,,,,,,,,825.6657,825.7613,825.7613,827.7432,block2,f,1,0,21,21,30,1,0,centre,friendly,no_target,1.1138,,,,,,,,,,,,,,,,,
,,,,,275059,f,y,r,n,13,0,2025-04-01_20h42.48.210,VisualSearchFaces,2024.2.4,Win32,60.24096386,,,,,,,,828.7478,828.8564,828.8566,830.8477,block2,j,1,0,22,22,14,1,1,bottom_right,friendly,neutral,0.6672,,,,,,,,,,,,,,,,,
,,,,,275059,f,y,r,n,13,0,2025-04-01_20h42.48.210,VisualSearchFaces,2024.2.4,Win32,60.24096386,,,,,,,,831.8523,831.9565,831.9565,833.9418,block2,f,1,0,23,23,28,1,0,bottom_left,neutral,no_target,0.9181,,,,,,,,,,,,,,,,,
,,,,,275059,f,y,r,n,13,0,2025-04-01_20h42.48.210,VisualSearchFaces,2024.2.4,Win32,60.24096386,,,,,,,,834.9644,835.0743,835.0743,837.0639,block2,j,0,0,24,24,37,1,0,top_right,threatening,no_target,1.4039,,,,,,,,,,,,,,,,,
,,,,,275059,f,y,r,n,13,0,2025-04-01_20h42.48.210,VisualSearchFaces,2024.2.4,Win32,60.24096386,,,,,,,,838.0707,838.1717,838.1717,840.1678,block2,j,1,0,25,25,13,1,1,bottom_left,friendly,neutral,0.8285,,,,,,,,,,,,,,,,,
,,,,,275059,f,y,r,n,13,0,2025-04-01_20h42.48.210,VisualSearchFaces,2024.2.4,Win32,60.24096386,,,,,,,,841.1773,841.2754,841.2754,843.2676,block2,j,1,0,26,26,17,1,1,top_right,threatening,neutral,0.8358,,,,,,,,,,,,,,,,,
,,,,,275059,f,y,r,n,13,0,2025-04-01_20h42.48.210,VisualSearchFaces,2024.2.4,Win32,60.24096386,,,,,,,,844.2769,844.3831,844.3831,846.3619,block2,f,1,0,27,27,26,1,0,top_left,neutral,no_target,0.6789,,,,,,,,,,,,,,,,,
,,,,,275059,f,y,r,n,13,0,2025-04-01_20h42.48.210,VisualSearchFaces,2024.2.4,Win32,60.24096386,,,,,,,,847.3636,847.4729,847.473,849.4629,block2,j,1,0,28,28,0,1,1,centre,neutral,friendly,0.6712,,,,,,,,,,,,,,,,,
,,,,,275059,f,y,r,n,13,0,2025-04-01_20h42.48.210,VisualSearchFaces,2024.2.4,Win32,60.24096386,,,,,,,,850.4672,850.5702,850.5707,852.5601,block2,j,1,0,29,29,19,1,1,bottom_right,threatening,neutral,0.7196,,,,,,,,,,,,,,,,,
,,,,,275059,f,y,r,n,13,0,2025-04-01_20h42.48.210,VisualSearchFaces,2024.2.4,Win32,60.24096386,,,,,,,,853.5787,853.6887,853.6888,855.6981,block2,j,1,0,30,30,3,1,1,bottom_left,neutral,friendly,1.6234,,,,,,,,,,,,,,,,,
,,,,,275059,f,y,r,n,13,0,2025-04-01_20h42.48.210,VisualSearchFaces,2024.2.4,Win32,60.24096386,,,,,,,,856.6914,856.7921,856.7923,858.7867,block2,f,0,0,31,31,11,1,1,top_left,friendly,neutral,0.9612,,,,,,,,,,,,,,,,,
,,,,,275059,f,y,r,n,13,0,2025-04-01_20h42.48.210,VisualSearchFaces,2024.2.4,Win32,60.24096386,,,,,,,,859.8008,859.9005,859.9006,861.8932,block2,j,1,0,32,32,2,1,1,top_right,neutral,friendly,0.958,,,,,,,,,,,,,,,,,
,,,,,275059,f,y,r,n,13,0,2025-04-01_20h42.48.210,VisualSearchFaces,2024.2.4,Win32,60.24096386,,,,,,,,862.8949,863.0064,863.0065,864.9915,block2,f,1,0,33,33,23,1,0,bottom_left,neutral,no_target,0.8431,,,,,,,,,,,,,,,,,
,,,,,275059,f,y,r,n,13,0,2025-04-01_20h42.48.210,VisualSearchFaces,2024.2.4,Win32,60.24096386,,,,,,,,866.0219,866.1346,866.1346,868.1272,block2,j,1,0,34,34,16,1,1,top_left,threatening,neutral,0.6388,,,,,,,,,,,,,,,,,
,,,,,275059,f,y,r,n,13,0,2025-04-01_20h42.48.210,VisualSearchFaces,2024.2.4,Win32,60.24096386,,,,,,,,869.1397,869.258,869.258,871.2668,block2,f,1,0,35,35,22,1,0,top_right,neutral,no_target,0.7288,,,,,,,,,,,,,,,,,
,,,,,275059,f,y,r,n,13,0,2025-04-01_20h42.48.210,VisualSearchFaces,2024.2.4,Win32,60.24096386,,,,,,,,872.2586,872.3622,872.3622,874.3629,block2,j,0,0,36,36,34,1,0,bottom_right,friendly,no_target,1.5669,,,,,,,,,,,,,,,,,
,,,,,275059,f,y,r,n,13,0,2025-04-01_20h42.48.210,VisualSearchFaces,2024.2.4,Win32,60.24096386,,,,,,,,875.3584,875.473,875.473,877.4636,block2,j,1,0,37,37,10,1,1,centre,friendly,neutral,0.5795,,,,,,,,,,,,,,,,,
,,,,,275059,f,y,r,n,13,0,2025-04-01_20h42.48.210,VisualSearchFaces,2024.2.4,Win32,60.24096386,,,,,,,,878.4718,878.5734,878.5734,880.5747,block2,j,0,0,38,38,39,1,0,bottom_right,threatening,no_target,1.085,,,,,,,,,,,,,,,,,
,,,,,275059,f,y,r,n,13,0,2025-04-01_20h42.48.210,VisualSearchFaces,2024.2.4,Win32,60.24096386,,,,,,,,881.5829,881.695,881.695,883.6838,block2,f,1,0,39,39,20,1,0,centre,neutral,no_target,0.7194,,,,,,,,,,,,,,,,,
,,,,,275059,f,y,r,n,13,0,2025-04-01_20h42.48.210,VisualSearchFaces,2024.2.4,Win32,60.24096386,,,,,,,,884.6892,884.7957,884.7957,886.7884,block2,j,1,1,0,40,6,1,1,top_left,neutral,threatening,0.729,,,,,,,,,,,,,,,,,
,,,,,275059,f,y,r,n,13,0,2025-04-01_20h42.48.210,VisualSearchFaces,2024.2.4,Win32,60.24096386,,,,,,,,887.8039,887.902,887.902,889.8784,block2,j,0,1,1,41,27,1,0,top_right,neutral,no_target,1.1475,,,,,,,,,,,,,,,,,
,,,,,275059,f,y,r,n,13,0,2025-04-01_20h42.48.210,VisualSearchFaces,2024.2.4,Win32,60.24096386,,,,,,,,890.9145,891.024,891.0242,893.0168,block2,f,1,1,2,42,23,1,0,bottom_left,neutral,no_target,0.7066,,,,,,,,,,,,,,,,,
,,,,,275059,f,y,r,n,13,0,2025-04-01_20h42.48.210,VisualSearchFaces,2024.2.4,Win32,60.24096386,,,,,,,,894.0227,894.1385,894.1385,896.1359,block2,j,1,1,3,43,3,1,1,bottom_left,neutral,friendly,0.8068,,,,,,,,,,,,,,,,,
,,,,,275059,f,y,r,n,13,0,2025-04-01_20h42.48.210,VisualSearchFaces,2024.2.4,Win32,60.24096386,,,,,,,,897.1492,897.252,897.2521,899.2569,block2,j,1,1,4,44,13,1,1,bottom_left,friendly,neutral,0.5561,,,,,,,,,,,,,,,,,
,,,,,275059,f,y,r,n,13,0,2025-04-01_20h42.48.210,VisualSearchFaces,2024.2.4,Win32,60.24096386,,,,,,,,900.2572,900.3639,900.3639,902.3579,block2,j,1,1,5,45,4,1,1,bottom_right,neutral,friendly,0.6681,,,,,,,,,,,,,,,,,
,,,,,275059,f,y,r,n,13,0,2025-04-01_20h42.48.210,VisualSearchFaces,2024.2.4,Win32,60.24096386,,,,,,,,903.3642,903.4721,903.4721,905.468,block2,,0,1,6,46,33,1,0,bottom_left,friendly,no_target,,,,,,,,,,,,,,,,,,
,,,,,275059,f,y,r,n,13,0,2025-04-01_20h42.48.210,VisualSearchFaces,2024.2.4,Win32,60.24096386,,,,,,,,906.4668,906.5751,906.5751,908.569,block2,j,0,1,7,47,36,1,0,top_left,threatening,no_target,0.7591,,,,,,,,,,,,,,,,,
,,,,,275059,f,y,r,n,13,0,2025-04-01_20h42.48.210,VisualSearchFaces,2024.2.4,Win32,60.24096386,,,,,,,,909.5624,909.6596,909.6597,911.6474,block2,j,1,1,8,48,14,1,1,bottom_right,friendly,neutral,0.6651,,,,,,,,,,,,,,,,,
,,,,,275059,f,y,r,n,13,0,2025-04-01_20h42.48.210,VisualSearchFaces,2024.2.4,Win32,60.24096386,,,,,,,,912.659,912.7567,912.7568,914.7561,block2,j,1,1,9,49,11,1,1,top_left,friendly,neutral,0.5578,,,,,,,,,,,,,,,,,
,,,,,275059,f,y,r,n,13,0,2025-04-01_20h42.48.210,VisualSearchFaces,2024.2.4,Win32,60.24096386,,,,,,,,915.756,915.8559,915.8559,917.8477,block2,j,1,1,10,50,8,1,1,bottom_left,neutral,threatening,0.7852,,,,,,,,,,,,,,,,,
,,,,,275059,f,y,r,n,13,0,2025-04-01_20h42.48.210,VisualSearchFaces,2024.2.4,Win32,60.24096386,,,,,,,,918.8517,918.9618,918.9619,920.9515,block2,f,1,1,11,51,24,1,0,bottom_right,neutral,no_target,0.723,,,,,,,,,,,,,,,,,
,,,,,275059,f,y,r,n,13,0,2025-04-01_20h42.48.210,VisualSearchFaces,2024.2.4,Win32,60.24096386,,,,,,,,921.9751,922.0845,922.0846,924.0843,block2,f,1,1,12,52,26,1,0,top_left,neutral,no_target,0.6972,,,,,,,,,,,,,,,,,
,,,,,275059,f,y,r,n,13,0,2025-04-01_20h42.48.210,VisualSearchFaces,2024.2.4,Win32,60.24096386,,,,,,,,925.0819,925.1981,925.1982,927.2065,block2,j,0,1,13,53,39,1,0,bottom_right,threatening,no_target,1.7624,,,,,,,,,,,,,,,,,
,,,,,275059,f,y,r,n,13,0,2025-04-01_20h42.48.210,VisualSearchFaces,2024.2.4,Win32,60.24096386,,,,,,,,928.1968,928.2987,928.2988,930.2928,block2,j,1,1,14,54,7,1,1,top_right,neutral,threatening,0.5969,,,,,,,,,,,,,,,,,
,,,,,275059,f,y,r,n,13,0,2025-04-01_20h42.48.210,VisualSearchFaces,2024.2.4,Win32,60.24096386,,,,,,,,931.2817,931.397,931.3971,933.4023,block2,f,1,1,15,55,25,1,0,centre,neutral,no_target,1.3037,,,,,,,,,,,,,,,,,
,,,,,275059,f,y,r,n,13,0,2025-04-01_20h42.48.210,VisualSearchFaces,2024.2.4,Win32,60.24096386,,,,,,,,934.4089,934.5238,934.5238,936.5171,block2,j,1,1,16,56,16,1,1,top_left,threatening,neutral,0.7475,,,,,,,,,,,,,,,,,
,,,,,275059,f,y,r,n,13,0,2025-04-01_20h42.48.210,VisualSearchFaces,2024.2.4,Win32,60.24096386,,,,,,,,937.5195,937.6303,937.6304,939.6106,block2,j,1,1,17,57,17,1,1,top_right,threatening,neutral,0.569,,,,,,,,,,,,,,,,,
,,,,,275059,f,y,r,n,13,0,2025-04-01_20h42.48.210,VisualSearchFaces,2024.2.4,Win32,60.24096386,,,,,,,,940.6141,940.7212,940.7214,942.7182,block2,j,1,1,18,58,15,1,1,centre,threatening,neutral,0.5315,,,,,,,,,,,,,,,,,
,,,,,275059,f,y,r,n,13,0,2025-04-01_20h42.48.210,VisualSearchFaces,2024.2.4,Win32,60.24096386,,,,,,,,943.7223,943.827,943.827,945.8154,block2,j,1,1,19,59,0,1,1,centre,neutral,friendly,0.8686,,,,,,,,,,,,,,,,,
,,,,,275059,f,y,r,n,13,0,2025-04-01_20h42.48.210,VisualSearchFaces,2024.2.4,Win32,60.24096386,,,,,,,,946.8272,946.9325,946.9326,948.93,block2,f,1,1,20,60,21,1,0,top_left,neutral,no_target,0.6097,,,,,,,,,,,,,,,,,
,,,,,275059,f,y,r,n,13,0,2025-04-01_20h42.48.210,VisualSearchFaces,2024.2.4,Win32,60.24096386,,,,,,,,949.9249,950.0353,950.0354,952.031,block2,j,0,1,21,61,35,1,0,centre,threatening,no_target,0.5966,,,,,,,,,,,,,,,,,
,,,,,275059,f,y,r,n,13,0,2025-04-01_20h42.48.210,VisualSearchFaces,2024.2.4,Win32,60.24096386,,,,,,,,953.0427,953.1464,953.1465,955.1543,block2,j,1,1,22,62,12,1,1,top_right,friendly,neutral,0.6728,,,,,,,,,,,,,,,,,
,,,,,275059,f,y,r,n,13,0,2025-04-01_20h42.48.210,VisualSearchFaces,2024.2.4,Win32,60.24096386,,,,,,,,956.1332,956.2366,956.2367,958.256,block2,j,1,1,23,63,2,1,1,top_right,neutral,friendly,0.5198,,,,,,,,,,,,,,,,,
,,,,,275059,f,y,r,n,13,0,2025-04-01_20h42.48.210,VisualSearchFaces,2024.2.4,Win32,60.24096386,,,,,,,,959.2381,959.3372,959.3372,961.3336,block2,j,0,1,24,64,32,1,0,top_right,friendly,no_target,0.587,,,,,,,,,,,,,,,,,
,,,,,275059,f,y,r,n,13,0,2025-04-01_20h42.48.210,VisualSearchFaces,2024.2.4,Win32,60.24096386,,,,,,,,962.3312,962.4265,962.4267,964.413,block2,j,1,1,25,65,9,1,1,bottom_right,neutral,threatening,1.1623,,,,,,,,,,,,,,,,,
,,,,,275059,f,y,r,n,13,0,2025-04-01_20h42.48.210,VisualSearchFaces,2024.2.4,Win32,60.24096386,,,,,,,,965.4191,965.5299,965.53,967.5114,block2,j,0,1,26,66,31,1,0,top_left,friendly,no_target,1.1304,,,,,,,,,,,,,,,,,
,,,,,275059,f,y,r,n,13,0,2025-04-01_20h42.48.210,VisualSearchFaces,2024.2.4,Win32,60.24096386,,,,,,,,968.5391,968.656,968.6561,970.6556,block2,f,1,1,27,67,20,1,0,centre,neutral,no_target,0.5843,,,,,,,,,,,,,,,,,
,,,,,275059,f,y,r,n,13,0,2025-04-01_20h42.48.210,VisualSearchFaces,2024.2.4,Win32,60.24096386,,,,,,,,971.6613,971.7599,971.7599,973.7406,block2,j,0,1,28,68,38,1,0,bottom_left,threatening,no_target,0.7115,,,,,,,,,,,,,,,,,
,,,,,275059,f,y,r,n,13,0,2025-04-01_20h42.48.210,VisualSearchFaces,2024.2.4,Win32,60.24096386,,,,,,,,974.768,974.8807,974.8807,976.8789,block2,j,1,1,29,69,5,1,1,centre,neutral,threatening,0.5976,,,,,,,,,,,,,,,,,
,,,,,275059,f,y,r,n,13,0,2025-04-01_20h42.48.210,VisualSearchFaces,2024.2.4,Win32,60.24096386,,,,,,,,977.8743,977.9811,977.9812,979.9802,block2,j,1,1,30,70,1,1,1,top_left,neutral,friendly,0.5278,,,,,,,,,,,,,,,,,
,,,,,275059,f,y,r,n,13,0,2025-04-01_20h42.48.210,VisualSearchFaces,2024.2.4,Win32,60.24096386,,,,,,,,980.9728,981.0845,981.0846,983.0907,block2,f,1,1,31,71,34,1,0,bottom_right,friendly,no_target,1.1579,,,,,,,,,,,,,,,,,
,,,,,275059,f,y,r,n,13,0,2025-04-01_20h42.48.210,VisualSearchFaces,2024.2.4,Win32,60.24096386,,,,,,,,984.0924,984.1952,984.1953,986.189,block2,j,1,1,32,72,19,1,1,bottom_right,threatening,neutral,0.6767,,,,,,,,,,,,,,,,,
,,,,,275059,f,y,r,n,13,0,2025-04-01_20h42.48.210,VisualSearchFaces,2024.2.4,Win32,60.24096386,,,,,,,,987.1938,987.3039,987.304,989.3102,block2,f,1,1,33,73,28,1,0,bottom_left,neutral,no_target,0.706,,,,,,,,,,,,,,,,,
,,,,,275059,f,y,r,n,13,0,2025-04-01_20h42.48.210,VisualSearchFaces,2024.2.4,Win32,60.24096386,,,,,,,,990.3044,990.4012,990.4012,992.3992,block2,f,1,1,34,74,22,1,0,top_right,neutral,no_target,0.6611,,,,,,,,,,,,,,,,,
,,,,,275059,f,y,r,n,13,0,2025-04-01_20h42.48.210,VisualSearchFaces,2024.2.4,Win32,60.24096386,,,,,,,,993.413,993.5136,993.5136,995.5172,block2,j,1,1,35,75,18,1,1,bottom_left,threatening,neutral,0.651,,,,,,,,,,,,,,,,,
,,,,,275059,f,y,r,n,13,0,2025-04-01_20h42.48.210,VisualSearchFaces,2024.2.4,Win32,60.24096386,,,,,,,,996.4994,996.598,996.598,998.5909,block2,f,1,1,36,76,29,1,0,bottom_right,neutral,no_target,0.669,,,,,,,,,,,,,,,,,
,,,,,275059,f,y,r,n,13,0,2025-04-01_20h42.48.210,VisualSearchFaces,2024.2.4,Win32,60.24096386,,,,,,,,999.6078,999.7113,999.7114,1001.7071,block2,j,1,1,37,77,10,1,1,centre,friendly,neutral,0.9053,,,,,,,,,,,,,,,,,
,,,,,275059,f,y,r,n,13,0,2025-04-01_20h42.48.210,VisualSearchFaces,2024.2.4,Win32,60.24096386,,,,,,,,1002.7076,1002.8153,1002.8154,1004.8051,block2,,0,1,38,78,30,1,0,centre,friendly,no_target,,,,,,,,,,,,,,,,,,
,,,,,275059,f,y,r,n,13,0,2025-04-01_20h42.48.210,VisualSearchFaces,2024.2.4,Win32,60.24096386,,,,,,,,1005.8084,1005.9057,1005.9057,1007.9005,block2,j,0,1,39,79,37,1,0,top_right,threatening,no_target,0.8215,,,,,,,,,,,,,,,,,
,,,,,275059,f,y,r,n,13,0,2025-04-01_20h42.48.210,VisualSearchFaces,2024.2.4,Win32,60.24096386,,,1061.3397,1068.1707,space,6.7563,,1069.1746,1069.2859,1069.286,1071.2884,block3,j,0,0,0,0,38,1,0,bottom_left,threatening,no_target,0.8136,,1007.9047,1061.337,space,53.3982,,,,,,,,,,,,
,,,,,275059,f,y,r,n,13,0,2025-04-01_20h42.48.210,VisualSearchFaces,2024.2.4,Win32,60.24096386,,,,,,,,1072.2903,1072.4031,1072.4032,1074.3971,block3,j,0,0,1,1,37,1,0,top_right,threatening,no_target,0.8926,,,,,,,,,,,,,,,,,
,,,,,275059,f,y,r,n,13,0,2025-04-01_20h42.48.210,VisualSearchFaces,2024.2.4,Win32,60.24096386,,,,,,,,1075.4146,1075.5079,1075.5079,1077.5045,block3,f,1,0,2,2,20,1,0,centre,neutral,no_target,0.6487,,,,,,,,,,,,,,,,,
,,,,,275059,f,y,r,n,13,0,2025-04-01_20h42.48.210,VisualSearchFaces,2024.2.4,Win32,60.24096386,,,,,,,,1078.5076,1078.6355,1078.6355,1080.6392,block3,j,1,0,3,3,11,1,1,top_left,friendly,neutral,0.6625,,,,,,,,,,,,,,,,,
,,,,,275059,f,y,r,n,13,0,2025-04-01_20h42.48.210,VisualSearchFaces,2024.2.4,Win32,60.24096386,,,,,,,,1081.6465,1081.7518,1081.7519,1083.728,block3,f,0,0,4,4,1,1,1,top_left,neutral,friendly,0.7598,,,,,,,,,,,,,,,,,
,,,,,275059,f,y,r,n,13,0,2025-04-01_20h42.48.210,VisualSearchFaces,2024.2.4,Win32,60.24096386,,,,,,,,1084.7635,1084.873,1084.8731,1086.8713,block3,f,1,0,5,5,24,1,0,bottom_right,neutral,no_target,0.6883,,,,,,,,,,,,,,,,,
,,,,,275059,f,y,r,n,13,0,2025-04-01_20h42.48.210,VisualSearchFaces,2024.2.4,Win32,60.24096386,,,,,,,,1087.889,1087.9987,1087.9988,1090.0047,block3,j,1,0,6,6,12,1,1,top_right,friendly,neutral,0.5183,,,,,,,,,,,,,,,,,
,,,,,275059,f,y,r,n,13,0,2025-04-01_20h42.48.210,VisualSearchFaces,2024.2.4,Win32,60.24096386,,,,,,,,1090.9918,1091.1049,1091.1051,1093.0918,block3,j,1,0,7,7,2,1,1,top_right,neutral,friendly,0.7156,,,,,,,,,,,,,,,,,
,,,,,275059,f,y,r,n,13,0,2025-04-01_20h42.48.210,VisualSearchFaces,2024.2.4,Win32,60.24096386,,,,,,,,1094.1156,1094.2276,1094.2277,1096.2153,block3,j,1,0,8,8,8,1,1,bottom_left,neutral,threatening,1.0637,,,,,,,,,,,,,,,,,
,,,,,275059,f,y,r,n,13,0,2025-04-01_20h42.48.210,VisualSearchFaces,2024.2.4,Win32,60.24096386,,,,,,,,1097.2268,1097.3294,1097.3295,1099.3361,block3,j,0,0,9,9,39,1,0,bottom_right,threatening,no_target,0.6844,,,,,,,,,,,,,,,,,
,,,,,275059,f,y,r,n,13,0,2025-04-01_20h42.48.210,VisualSearchFaces,2024.2.4,Win32,60.24096386,,,,,,,,1100.3141,1100.414,1100.414,1102.4374,block3,j,1,0,10,10,9,1,1,bottom_right,neutral,threatening,0.8113,,,,,,,,,,,,,,,,,
,,,,,275059,f,y,r,n,13,0,2025-04-01_20h42.48.210,VisualSearchFaces,2024.2.4,Win32,60.24096386,,,,,,,,1103.4082,1103.506,1103.5061,1105.5036,block3,j,1,0,11,11,5,1,1,centre,neutral,threatening,0.6162,,,,,,,,,,,,,,,,,
,,,,,275059,f,y,r,n,13,0,2025-04-01_20h42.48.210,VisualSearchFaces,2024.2.4,Win32,60.24096386,,,,,,,,1106.5108,1106.6169,1106.6174,1108.625,block3,j,0,0,12,12,23,1,0,bottom_left,neutral,no_target,0.7466,,,,,,,,,,,,,,,,,
,,,,,275059,f,y,r,n,13,0,2025-04-01_20h42.48.210,VisualSearchFaces,2024.2.4,Win32,60.24096386,,,,,,,,1109.6076,1109.7115,1109.7115,1111.7206,block3,j,1,0,13,13,10,1,1,centre,friendly,neutral,0.7342,,,,,,,,,,,,,,,,,
,,,,,275059,f,y,r,n,13,0,2025-04-01_20h42.48.210,VisualSearchFaces,2024.2.4,Win32,60.24096386,,,,,,,,1112.6956,1112.8027,1112.8027,1114.7893,block3,f,1,0,14,14,36,1,0,top_left,threatening,no_target,1.3728,,,,,,,,,,,,,,,,,
,,,,,275059,f,y,r,n,13,0,2025-04-01_20h42.48.210,VisualSearchFaces,2024.2.4,Win32,60.24096386,,,,,,,,1115.8058,1115.9155,1115.9156,1117.8917,block3,f,1,0,15,15,32,1,0,top_right,friendly,no_target,1.2287,,,,,,,,,,,,,,,,,
,,,,,275059,f,y,r,n,13,0,2025-04-01_20h42.48.210,VisualSearchFaces,2024.2.4,Win32,60.24096386,,,,,,,,1118.924,1119.0541,1119.0542,1121.0465,block3,j,1,0,16,16,3,1,1,bottom_left,neutral,friendly,0.9979,,,,,,,,,,,,,,,,,
,,,,,275059,f,y,r,n,13,0,2025-04-01_20h42.48.210,VisualSearchFaces,2024.2.4,Win32,60.24096386,,,,,,,,1122.0521,1122.1484,1122.1486,1124.154,block3,j,1,0,17,17,0,1,1,centre,neutral,friendly,0.6357,,,,,,,,,,,,,,,,,
,,,,,275059,f,y,r,n,13,0,2025-04-01_20h42.48.210,VisualSearchFaces,2024.2.4,Win32,60.24096386,,,,,,,,1125.1533,1125.2685,1125.2685,1127.2598,block3,j,1,0,18,18,4,1,1,bottom_right,neutral,friendly,0.7321,,,,,,,,,,,,,,,,,
,,,,,275059,f,y,r,n,13,0,2025-04-01_20h42.48.210,VisualSearchFaces,2024.2.4,Win32,60.24096386,,,,,,,,1128.2655,1128.3685,1128.3686,1130.3749,block3,f,1,0,19,19,22,1,0,top_right,neutral,no_target,0.6833,,,,,,,,,,,,,,,,,
,,,,,275059,f,y,r,n,13,0,2025-04-01_20h42.48.210,VisualSearchFaces,2024.2.4,Win32,60.24096386,,,,,,,,1131.3689,1131.4876,1131.4877,1133.4768,block3,j,1,0,20,20,19,1,1,bottom_right,threatening,neutral,0.6838,,,,,,,,,,,,,,,,,
,,,,,275059,f,y,r,n,13,0,2025-04-01_20h42.48.210,VisualSearchFaces,2024.2.4,Win32,60.24096386,,,,,,,,1134.4954,1134.6182,1134.6183,1136.6154,block3,j,0,0,21,21,35,1,0,centre,threatening,no_target,0.7647,,,,,,,,,,,,,,,,,
,,,,,275059,f,y,r,n,13,0,2025-04-01_20h42.48.210,VisualSearchFaces,2024.2.4,Win32,60.24096386,,,,,,,,1137.6382,1137.7381,1137.7381,1139.7297,block3,f,1,0,22,22,29,1,0,bottom_right,neutral,no_target,0.9865,,,,,,,,,,,,,,,,,
,,,,,275059,f,y,r,n,13,0,2025-04-01_20h42.48.210,VisualSearchFaces,2024.2.4,Win32,60.24096386,,,,,,,,1140.733,1140.8542,1140.8542,1142.8486,block3,j,0,0,23,23,34,1,0,bottom_right,friendly,no_target,1.6135,,,,,,,,,,,,,,,,,
,,,,,275059,f,y,r,n,13,0,2025-04-01_20h42.48.210,VisualSearchFaces,2024.2.4,Win32,60.24096386,,,,,,,,1143.86,1143.9596,1143.9597,1145.9404,block3,f,1,0,24,24,28,1,0,bottom_left,neutral,no_target,0.7767,,,,,,,,,,,,,,,,,
,,,,,275059,f,y,r,n,13,0,2025-04-01_20h42.48.210,VisualSearchFaces,2024.2.4,Win32,60.24096386,,,,,,,,1146.9536,1147.0596,1147.0597,1149.0701,block3,j,1,0,25,25,14,1,1,bottom_right,friendly,neutral,0.6867,,,,,,,,,,,,,,,,,
,,,,,275059,f,y,r,n,13,0,2025-04-01_20h42.48.210,VisualSearchFaces,2024.2.4,Win32,60.24096386,,,,,,,,1150.0448,1150.1521,1150.1521,1152.1564,block3,j,0,0,26,26,31,1,0,top_left,friendly,no_target,1.9237,,,,,,,,,,,,,,,,,
,,,,,275059,f,y,r,n,13,0,2025-04-01_20h42.48.210,VisualSearchFaces,2024.2.4,Win32,60.24096386,,,,,,,,1153.1463,1153.251,1153.2511,1155.2412,block3,f,1,0,27,27,27,1,0,top_right,neutral,no_target,0.6443,,,,,,,,,,,,,,,,,
,,,,,275059,f,y,r,n,13,0,2025-04-01_20h42.48.210,VisualSearchFaces,2024.2.4,Win32,60.24096386,,,,,,,,1156.2619,1156.3729,1156.373,1158.3644,block3,f,1,0,28,28,21,1,0,top_left,neutral,no_target,0.7642,,,,,,,,,,,,,,,,,
,,,,,275059,f,y,r,n,13,0,2025-04-01_20h42.48.210,VisualSearchFaces,2024.2.4,Win32,60.24096386,,,,,,,,1159.3647,1159.4685,1159.4685,1161.4576,block3,j,0,0,29,29,30,1,0,centre,friendly,no_target,0.8367,,,,,,,,,,,,,,,,,
,,,,,275059,f,y,r,n,13,0,2025-04-01_20h42.48.210,VisualSearchFaces,2024.2.4,Win32,60.24096386,,,,,,,,1162.4779,1162.5862,1162.5862,1164.5855,block3,j,1,0,30,30,13,1,1,bottom_left,friendly,neutral,0.8098,,,,,,,,,,,,,,,,,
,,,,,275059,f,y,r,n,13,0,2025-04-01_20h42.48.210,VisualSearchFaces,2024.2.4,Win32,60.24096386,,,,,,,,1165.594,1165.722,1165.722,1167.7199,block3,f,1,0,31,31,26,1,0,top_left,neutral,no_target,0.7048,,,,,,,,,,,,,,,,,
,,,,,275059,f,y,r,n,13,0,2025-04-01_20h42.48.210,VisualSearchFaces,2024.2.4,Win32,60.24096386,,,,,,,,1168.72,1168.8352,1168.8353,1170.8221,block3,j,1,0,32,32,6,1,1,top_left,neutral,threatening,0.582,,,,,,,,,,,,,,,,,
,,,,,275059,f,y,r,n,13,0,2025-04-01_20h42.48.210,VisualSearchFaces,2024.2.4,Win32,60.24096386,,,,,,,,1171.8433,1171.9455,1171.9457,1173.9484,block3,j,1,0,33,33,16,1,1,top_left,threatening,neutral,0.6203,,,,,,,,,,,,,,,,,
,,,,,275059,f,y,r,n,13,0,2025-04-01_20h42.48.210,VisualSearchFaces,2024.2.4,Win32,60.24096386,,,,,,,,1174.954,1175.0487,1175.0488,1177.0416,block3,j,0,0,34,34,25,1,0,centre,neutral,no_target,1.0384,,,,,,,,,,,,,,,,,
,,,,,275059,f,y,r,n,13,0,2025-04-01_20h42.48.210,VisualSearchFaces,2024.2.4,Win32,60.24096386,,,,,,,,1178.0544,1178.1529,1178.153,1180.1477,block3,j,1,0,35,35,18,1,1,bottom_left,threatening,neutral,0.7546,,,,,,,,,,,,,,,,,
,,,,,275059,f,y,r,n,13,0,2025-04-01_20h42.48.210,VisualSearchFaces,2024.2.4,Win32,60.24096386,,,,,,,,1181.1466,1181.2501,1181.2502,1183.2709,block3,j,1,0,36,36,15,1,1,centre,threatening,neutral,0.691,,,,,,,,,,,,,,,,,
,,,,,275059,f,y,r,n,13,0,2025-04-01_20h42.48.210,VisualSearchFaces,2024.2.4,Win32,60.24096386,,,,,,,,1184.2699,1184.3858,1184.3858,1186.3905,block3,j,0,0,37,37,33,1,0,bottom_left,friendly,no_target,0.6884,,,,,,,,,,,,,,,,,
,,,,,275059,f,y,r,n,13,0,2025-04-01_20h42.48.210,VisualSearchFaces,2024.2.4,Win32,60.24096386,,,,,,,,1187.3927,1187.5029,1187.503,1189.4948,block3,j,1,0,38,38,7,1,1,top_right,neutral,threatening,0.8302,,,,,,,,,,,,,,,,,
,,,,,275059,f,y,r,n,13,0,2025-04-01_20h42.48.210,VisualSearchFaces,2024.2.4,Win32,60.24096386,,,,,,,,1190.4933,1190.5977,1190.5977,1192.5912,block3,j,1,0,39,39,17,1,1,top_right,threatening,neutral,0.5848,,,,,,,,,,,,,,,,,
,,,,,275059,f,y,r,n,13,0,2025-04-01_20h42.48.210,VisualSearchFaces,2024.2.4,Win32,60.24096386,,,,,,,,1193.6052,1193.7064,1193.7065,1195.6919,block3,j,1,1,0,40,14,1,1,bottom_right,friendly,neutral,0.7888,,,,,,,,,,,,,,,,,
,,,,,275059,f,y,r,n,13,0,2025-04-01_20h42.48.210,VisualSearchFaces,2024.2.4,Win32,60.24096386,,,,,,,,1196.7054,1196.8141,1196.8142,1198.8089,block3,j,1,1,1,41,5,1,1,centre,neutral,threatening,0.5653,,,,,,,,,,,,,,,,,
,,,,,275059,f,y,r,n,13,0,2025-04-01_20h42.48.210,VisualSearchFaces,2024.2.4,Win32,60.24096386,,,,,,,,1199.8202,1199.9331,1199.9331,1201.9406,block3,j,1,1,2,42,8,1,1,bottom_left,neutral,threatening,0.8604,,,,,,,,,,,,,,,,,
,,,,,275059,f,y,r,n,13,0,2025-04-01_20h42.48.210,VisualSearchFaces,2024.2.4,Win32,60.24096386,,,,,,,,1202.9297,1203.0417,1203.0418,1205.037,block3,f,1,1,3,43,21,1,0,top_left,neutral,no_target,0.6013,,,,,,,,,,,,,,,,,
,,,,,275059,f,y,r,n,13,0,2025-04-01_20h42.48.210,VisualSearchFaces,2024.2.4,Win32,60.24096386,,,,,,,,1206.0358,1206.1405,1206.1406,1208.1247,block3,f,1,1,4,44,32,1,0,top_right,friendly,no_target,1.6927,,,,,,,,,,,,,,,,,
,,,,,275059,f,y,r,n,13,0,2025-04-01_20h42.48.210,VisualSearchFaces,2024.2.4,Win32,60.24096386,,,,,,,,1209.1468,1209.2427,1209.2428,1211.2398,block3,j,1,1,5,45,9,1,1,bottom_right,neutral,threatening,0.7176,,,,,,,,,,,,,,,,,
,,,,,275059,f,y,r,n,13,0,2025-04-01_20h42.48.210,VisualSearchFaces,2024.2.4,Win32,60.24096386,,,,,,,,1212.2392,1212.3404,1212.3406,1214.3388,block3,j,0,1,6,46,35,1,0,centre,threatening,no_target,0.9247,,,,,,,,,,,,,,,,,
,,,,,275059,f,y,r,n,13,0,2025-04-01_20h42.48.210,VisualSearchFaces,2024.2.4,Win32,60.24096386,,,,,,,,1215.336,1215.4538,1215.4539,1217.4588,block3,j,1,1,7,47,6,1,1,top_left,neutral,threatening,0.727,,,,,,,,,,,,,,,,,
,,,,,275059,f,y,r,n,13,0,2025-04-01_20h42.48.210,VisualSearchFaces,2024.2.4,Win32,60.24096386,,,,,,,,1218.4608,1218.5744,1218.5744,1220.5566,block3,f,1,1,8,48,20,1,0,centre,neutral,no_target,0.6845,,,,,,,,,,,,,,,,,
,,,,,275059,f,y,r,n,13,0,2025-04-01_20h42.48.210,VisualSearchFaces,2024.2.4,Win32,60.24096386,,,,,,,,1221.5729,1221.6871,1221.6872,1223.6921,block3,f,1,1,9,49,26,1,0,top_left,neutral,no_target,0.6271,,,,,,,,,,,,,,,,,
,,,,,275059,f,y,r,n,13,0,2025-04-01_20h42.48.210,VisualSearchFaces,2024.2.4,Win32,60.24096386,,,,,,,,1224.6839,1224.7891,1224.7891,1226.7779,block3,f,1,1,10,50,23,1,0,bottom_left,neutral,no_target,0.9515,,,,,,,,,,,,,,,,,
,,,,,275059,f,y,r,n,13,0,2025-04-01_20h42.48.210,VisualSearchFaces,2024.2.4,Win32,60.24096386,,,,,,,,1227.7948,1227.8939,1227.8941,1229.9008,block3,j,1,1,11,51,10,1,1,centre,friendly,neutral,0.8489,,,,,,,,,,,,,,,,,
,,,,,275059,f,y,r,n,13,0,2025-04-01_20h42.48.210,VisualSearchFaces,2024.2.4,Win32,60.24096386,,,,,,,,1230.8773,1230.9742,1230.9748,1232.9697,block3,,0,1,12,52,36,1,0,top_left,threatening,no_target,,,,,,,,,,,,,,,,,,
,,,,,275059,f,y,r,n,13,0,2025-04-01_20h42.48.210,VisualSearchFaces,2024.2.4,Win32,60.24096386,,,,,,,,1233.956,1234.0707,1234.0708,1236.07,block3,f,1,1,13,53,27,1,0,top_right,neutral,no_target,0.8012,,,,,,,,,,,,,,,,,
,,,,,275059,f,y,r,n,13,0,2025-04-01_20h42.48.210,VisualSearchFaces,2024.2.4,Win32,60.24096386,,,,,,,,1237.0666,1237.1665,1237.1666,1239.1613,block3,f,1,1,14,54,29,1,0,bottom_right,neutral,no_target,0.5948,,,,,,,,,,,,,,,,,
,,,,,275059,f,y,r,n,13,0,2025-04-01_20h42.48.210,VisualSearchFaces,2024.2.4,Win32,60.24096386,,,,,,,,1240.1817,1240.287,1240.2871,1242.271,block3,j,1,1,15,55,12,1,1,top_right,friendly,neutral,1.438,,,,,,,,,,,,,,,,,
,,,,,275059,f,y,r,n,13,0,2025-04-01_20h42.48.210,VisualSearchFaces,2024.2.4,Win32,60.24096386,,,,,,,,1243.2904,1243.3947,1243.395,1245.3884,block3,j,1,1,16,56,7,1,1,top_right,neutral,threatening,0.551,,,,,,,,,,,,,,,,,
,,,,,275059,f,y,r,n,13,0,2025-04-01_20h42.48.210,VisualSearchFaces,2024.2.4,Win32,60.24096386,,,,,,,,1246.3952,1246.5099,1246.5101,1248.5178,block3,j,1,1,17,57,0,1,1,centre,neutral,friendly,0.5276,,,,,,,,,,,,,,,,,
,,,,,275059,f,y,r,n,13,0,2025-04-01_20h42.48.210,VisualSearchFaces,2024.2.4,Win32,60.24096386,,,,,,,,1249.514,1249.6263,1249.6264,1251.6221,block3,j,1,1,18,58,1,1,1,top_left,neutral,friendly,0.487,,,,,,,,,,,,,,,,,
,,,,,275059,f,y,r,n,13,0,2025-04-01_20h42.48.210,VisualSearchFaces,2024.2.4,Win32,60.24096386,,,,,,,,1252.6216,1252.7355,1252.7355,1254.7209,block3,j,1,1,19,59,17,1,1,top_right,threatening,neutral,0.4642,,,,,,,,,,,,,,,,,
,,,,,275059,f,y,r,n,13,0,2025-04-01_20h42.48.210,VisualSearchFaces,2024.2.4,Win32,60.24096386,,,,,,,,1255.7281,1255.8353,1255.8353,1257.8281,block3,j,1,1,20,60,13,1,1,bottom_left,friendly,neutral,0.7076,,,,,,,,,,,,,,,,,
,,,,,275059,f,y,r,n,13,0,2025-04-01_20h42.48.210,VisualSearchFaces,2024.2.4,Win32,60.24096386,,,,,,,,1258.828,1258.9393,1258.9393,1260.9284,block3,f,1,1,21,61,38,1,0,bottom_left,threatening,no_target,1.1172,,,,,,,,,,,,,,,,,
,,,,,275059,f,y,r,n,13,0,2025-04-01_20h42.48.210,VisualSearchFaces,2024.2.4,Win32,60.24096386,,,,,,,,1261.9553,1262.0679,1262.0681,1264.0732,block3,f,1,1,22,62,28,1,0,bottom_left,neutral,no_target,0.7686,,,,,,,,,,,,,,,,,
,,,,,275059,f,y,r,n,13,0,2025-04-01_20h42.48.210,VisualSearchFaces,2024.2.4,Win32,60.24096386,,,,,,,,1265.0757,1265.193,1265.1935,1267.1915,block3,f,1,1,23,63,37,1,0,top_right,threatening,no_target,1.0339,,,,,,,,,,,,,,,,,
,,,,,275059,f,y,r,n,13,0,2025-04-01_20h42.48.210,VisualSearchFaces,2024.2.4,Win32,60.24096386,,,,,,,,1268.1981,1268.3062,1268.3063,1270.3002,block3,j,0,1,24,64,31,1,0,top_left,friendly,no_target,0.5941,,,,,,,,,,,,,,,,,
,,,,,275059,f,y,r,n,13,0,2025-04-01_20h42.48.210,VisualSearchFaces,2024.2.4,Win32,60.24096386,,,,,,,,1271.3191,1271.421,1271.4211,1273.4113,block3,f,0,1,25,65,4,1,1,bottom_right,neutral,friendly,1.1027,,,,,,,,,,,,,,,,,
,,,,,275059,f,y,r,n,13,0,2025-04-01_20h42.48.210,VisualSearchFaces,2024.2.4,Win32,60.24096386,,,,,,,,1274.42,1274.5318,1274.5318,1276.5384,block3,j,1,1,26,66,2,1,1,top_right,neutral,friendly,0.5872,,,,,,,,,,,,,,,,,
,,,,,275059,f,y,r,n,13,0,2025-04-01_20h42.48.210,VisualSearchFaces,2024.2.4,Win32,60.24096386,,,,,,,,1277.5276,1277.6437,1277.6437,1279.6354,block3,f,1,1,27,67,25,1,0,centre,neutral,no_target,0.6328,,,,,,,,,,,,,,,,,
,,,,,275059,f,y,r,n,13,0,2025-04-01_20h42.48.210,VisualSearchFaces,2024.2.4,Win32,60.24096386,,,,,,,,1280.6249,1280.7353,1280.7354,1282.7404,block3,f,1,1,28,68,22,1,0,top_right,neutral,no_target,0.8566,,,,,,,,,,,,,,,,,
,,,,,275059,f,y,r,n,13,0,2025-04-01_20h42.48.210,VisualSearchFaces,2024.2.4,Win32,60.24096386,,,,,,,,1283.7139,1283.8291,1283.8291,1285.8244,block3,j,1,1,29,69,19,1,1,bottom_right,threatening,neutral,0.6972,,,,,,,,,,,,,,,,,
,,,,,275059,f,y,r,n,13,0,2025-04-01_20h42.48.210,VisualSearchFaces,2024.2.4,Win32,60.24096386,,,,,,,,1286.8343,1286.9513,1286.9513,1288.9405,block3,j,1,1,30,70,11,1,1,top_left,friendly,neutral,0.461,,,,,,,,,,,,,,,,,
,,,,,275059,f,y,r,n,13,0,2025-04-01_20h42.48.210,VisualSearchFaces,2024.2.4,Win32,60.24096386,,,,,,,,1289.9594,1290.0563,1290.0565,1292.0469,block3,j,1,1,31,71,3,1,1,bottom_left,neutral,friendly,0.7918,,,,,,,,,,,,,,,,,
,,,,,275059,f,y,r,n,13,0,2025-04-01_20h42.48.210,VisualSearchFaces,2024.2.4,Win32,60.24096386,,,,,,,,1293.0529,1293.1671,1293.1671,1295.1686,block3,j,0,1,32,72,30,1,0,centre,friendly,no_target,0.659,,,,,,,,,,,,,,,,,
,,,,,275059,f,y,r,n,13,0,2025-04-01_20h42.48.210,VisualSearchFaces,2024.2.4,Win32,60.24096386,,,,,,,,1296.1509,1296.2499,1296.2499,1298.2545,block3,f,1,1,33,73,39,1,0,bottom_right,threatening,no_target,0.8275,,,,,,,,,,,,,,,,,
,,,,,275059,f,y,r,n,13,0,2025-04-01_20h42.48.210,VisualSearchFaces,2024.2.4,Win32,60.24096386,,,,,,,,1299.2552,1299.3563,1299.3564,1301.3365,block3,j,0,1,34,74,33,1,0,bottom_left,friendly,no_target,0.6929,,,,,,,,,,,,,,,,,
,,,,,275059,f,y,r,n,13,0,2025-04-01_20h42.48.210,VisualSearchFaces,2024.2.4,Win32,60.24096386,,,,,,,,1302.3717,1302.4688,1302.4688,1304.4516,block3,j,1,1,35,75,15,1,1,centre,threatening,neutral,0.6197,,,,,,,,,,,,,,,,,
,,,,,275059,f,y,r,n,13,0,2025-04-01_20h42.48.210,VisualSearchFaces,2024.2.4,Win32,60.24096386,,,,,,,,1305.4673,1305.5674,1305.5674,1307.5524,block3,j,1,1,36,76,16,1,1,top_left,threatening,neutral,0.5988,,,,,,,,,,,,,,,,,
,,,,,275059,f,y,r,n,13,0,2025-04-01_20h42.48.210,VisualSearchFaces,2024.2.4,Win32,60.24096386,,,,,,,,1308.5715,1308.6877,1308.6878,1310.6786,block3,f,1,1,37,77,24,1,0,bottom_right,neutral,no_target,0.9513,,,,,,,,,,,,,,,,,
,,,,,275059,f,y,r,n,13,0,2025-04-01_20h42.48.210,VisualSearchFaces,2024.2.4,Win32,60.24096386,,,,,,,,1311.6904,1311.7891,1311.7892,1313.7996,block3,j,0,1,38,78,34,1,0,bottom_right,friendly,no_target,1.435,,,,,,,,,,,,,,,,,
,,,,,275059,f,y,r,n,13,0,2025-04-01_20h42.48.210,VisualSearchFaces,2024.2.4,Win32,60.24096386,,,,,,,,1314.7876,1314.8983,1314.8984,1316.8927,block3,j,1,1,39,79,18,1,1,bottom_left,threatening,neutral,0.6676,,,,,,,,,,,,,,,,,
,,,,,275059,f,y,r,n,13,0,2025-04-01_20h42.48.210,VisualSearchFaces,2024.2.4,Win32,60.24096386,,,1343.5946,1347.218,space,3.53,,1348.2085,1348.3185,1348.3186,1350.3101,block4,j,0,0,0,0,31,1,0,top_left,friendly,no_target,1.1234,,1316.8987,1343.5884,space,26.6497,,,,,,,,,,,,
,,,,,275059,f,y,r,n,13,0,2025-04-01_20h42.48.210,VisualSearchFaces,2024.2.4,Win32,60.24096386,,,,,,,,1351.3193,1351.4191,1351.4192,1353.4127,block4,j,1,0,1,1,6,1,1,top_left,neutral,threatening,0.662,,,,,,,,,,,,,,,,,
,,,,,275059,f,y,r,n,13,0,2025-04-01_20h42.48.210,VisualSearchFaces,2024.2.4,Win32,60.24096386,,,,,,,,1354.4221,1354.5333,1354.5333,1356.5088,block4,j,1,0,2,2,1,1,1,top_left,neutral,friendly,0.4801,,,,,,,,,,,,,,,,,
,,,,,275059,f,y,r,n,13,0,2025-04-01_20h42.48.210,VisualSearchFaces,2024.2.4,Win32,60.24096386,,,,,,,,1357.5399,1357.6417,1357.6418,1359.6273,block4,f,0,0,3,3,18,1,1,bottom_left,threatening,neutral,1.453,,,,,,,,,,,,,,,,,
,,,,,275059,f,y,r,n,13,0,2025-04-01_20h42.48.210,VisualSearchFaces,2024.2.4,Win32,60.24096386,,,,,,,,1360.6517,1360.7606,1360.7607,1362.7551,block4,f,1,0,4,4,28,1,0,bottom_left,neutral,no_target,0.6321,,,,,,,,,,,,,,,,,
,,,,,275059,f,y,r,n,13,0,2025-04-01_20h42.48.210,VisualSearchFaces,2024.2.4,Win32,60.24096386,,,,,,,,1363.7607,1363.8743,1363.8743,1365.8752,block4,f,1,0,5,5,25,1,0,centre,neutral,no_target,0.8241,,,,,,,,,,,,,,,,,
,,,,,275059,f,y,r,n,13,0,2025-04-01_20h42.48.210,VisualSearchFaces,2024.2.4,Win32,60.24096386,,,,,,,,1366.8553,1366.9668,1366.9669,1368.9581,block4,j,1,0,6,6,5,1,1,centre,neutral,threatening,0.4473,,,,,,,,,,,,,,,,,
,,,,,275059,f,y,r,n,13,0,2025-04-01_20h42.48.210,VisualSearchFaces,2024.2.4,Win32,60.24096386,,,,,,,,1369.96,1370.0703,1370.0703,1372.0707,block4,f,1,0,7,7,21,1,0,top_left,neutral,no_target,0.6364,,,,,,,,,,,,,,,,,
,,,,,275059,f,y,r,n,13,0,2025-04-01_20h42.48.210,VisualSearchFaces,2024.2.4,Win32,60.24096386,,,,,,,,1373.0657,1373.164,1373.1641,1375.1543,block4,j,1,0,8,8,8,1,1,bottom_left,neutral,threatening,0.4645,,,,,,,,,,,,,,,,,
,,,,,275059,f,y,r,n,13,0,2025-04-01_20h42.48.210,VisualSearchFaces,2024.2.4,Win32,60.24096386,,,,,,,,1376.1668,1376.2784,1376.2784,1378.2544,block4,f,1,0,9,9,24,1,0,bottom_right,neutral,no_target,0.5971,,,,,,,,,,,,,,,,,
,,,,,275059,f,y,r,n,13,0,2025-04-01_20h42.48.210,VisualSearchFaces,2024.2.4,Win32,60.24096386,,,,,,,,1379.2715,1379.3838,1379.3839,1381.3856,block4,j,0,0,10,10,33,1,0,bottom_left,friendly,no_target,0.4765,,,,,,,,,,,,,,,,,
,,,,,275059,f,y,r,n,13,0,2025-04-01_20h42.48.210,VisualSearchFaces,2024.2.4,Win32,60.24096386,,,,,,,,1382.3878,1382.501,1382.5011,1384.4956,block4,f,1,0,11,11,22,1,0,top_right,neutral,no_target,0.9569,,,,,,,,,,,,,,,,,
,,,,,275059,f,y,r,n,13,0,2025-04-01_20h42.48.210,VisualSearchFaces,2024.2.4,Win32,60.24096386,,,,,,,,1385.4998,1385.6023,1385.6023,1387.5986,block4,f,1,0,12,12,20,1,0,centre,neutral,no_target,1.1823,,,,,,,,,,,,,,,,,
,,,,,275059,f,y,r,n,13,0,2025-04-01_20h42.48.210,VisualSearchFaces,2024.2.4,Win32,60.24096386,,,,,,,,1388.6225,1388.7372,1388.7373,1390.7173,block4,j,1,0,13,13,4,1,1,bottom_right,neutral,friendly,0.4268,,,,,,,,,,,,,,,,,
,,,,,275059,f,y,r,n,13,0,2025-04-01_20h42.48.210,VisualSearchFaces,2024.2.4,Win32,60.24096386,,,,,,,,1391.7249,1391.8221,1391.8221,1393.8163,block4,j,0,0,14,14,36,1,0,top_left,threatening,no_target,1.6192,,,,,,,,,,,,,,,,,
,,,,,275059,f,y,r,n,13,0,2025-04-01_20h42.48.210,VisualSearchFaces,2024.2.4,Win32,60.24096386,,,,,,,,1394.8167,1394.9182,1394.9183,1396.8853,block4,j,1,0,15,15,14,1,1,bottom_right,friendly,neutral,0.7058,,,,,,,,,,,,,,,,,
,,,,,275059,f,y,r,n,13,0,2025-04-01_20h42.48.210,VisualSearchFaces,2024.2.4,Win32,60.24096386,,,,,,,,1397.9204,1398.0271,1398.0271,1400.0148,block4,j,0,0,16,16,32,1,0,top_right,friendly,no_target,0.5524,,,,,,,,,,,,,,,,,
,,,,,275059,f,y,r,n,13,0,2025-04-01_20h42.48.210,VisualSearchFaces,2024.2.4,Win32,60.24096386,,,,,,,,1401.0294,1401.1318,1401.1318,1403.1333,block4,f,1,0,17,17,26,1,0,top_left,neutral,no_target,0.6842,,,,,,,,,,,,,,,,,
,,,,,275059,f,y,r,n,13,0,2025-04-01_20h42.48.210,VisualSearchFaces,2024.2.4,Win32,60.24096386,,,,,,,,1404.1493,1404.2651,1404.2651,1406.2649,block4,f,0,0,18,18,19,1,1,bottom_right,threatening,neutral,0.8182,,,,,,,,,,,,,,,,,
,,,,,275059,f,y,r,n,13,0,2025-04-01_20h42.48.210,VisualSearchFaces,2024.2.4,Win32,60.24096386,,,,,,,,1407.2608,1407.3679,1407.3679,1409.3616,block4,j,1,0,19,19,2,1,1,top_right,neutral,friendly,0.5346,,,,,,,,,,,,,,,,,
,,,,,275059,f,y,r,n,13,0,2025-04-01_20h42.48.210,VisualSearchFaces,2024.2.4,Win32,60.24096386,,,,,,,,1410.3577,1410.4611,1410.4612,1412.4399,block4,f,1,0,20,20,27,1,0,top_right,neutral,no_target,0.895,,,,,,,,,,,,,,,,,
,,,,,275059,f,y,r,n,13,0,2025-04-01_20h42.48.210,VisualSearchFaces,2024.2.4,Win32,60.24096386,,,,,,,,1413.4587,1413.5825,1413.5826,1415.5765,block4,j,1,0,21,21,0,1,1,centre,neutral,friendly,0.5394,,,,,,,,,,,,,,,,,
,,,,,275059,f,y,r,n,13,0,2025-04-01_20h42.48.210,VisualSearchFaces,2024.2.4,Win32,60.24096386,,,,,,,,1416.5845,1416.6831,1416.6832,1418.6786,block4,j,1,0,22,22,17,1,1,top_right,threatening,neutral,0.6224,,,,,,,,,,,,,,,,,
,,,,,275059,f,y,r,n,13,0,2025-04-01_20h42.48.210,VisualSearchFaces,2024.2.4,Win32,60.24096386,,,,,,,,1419.6757,1419.7872,1419.7873,1421.7822,block4,j,1,0,23,23,9,1,1,bottom_right,neutral,threatening,0.6085,,,,,,,,,,,,,,,,,
,,,,,275059,f,y,r,n,13,0,2025-04-01_20h42.48.210,VisualSearchFaces,2024.2.4,Win32,60.24096386,,,,,,,,1422.7852,1422.8832,1422.8832,1424.8844,block4,f,1,0,24,24,35,1,0,centre,threatening,no_target,0.9069,,,,,,,,,,,,,,,,,
,,,,,275059,f,y,r,n,13,0,2025-04-01_20h42.48.210,VisualSearchFaces,2024.2.4,Win32,60.24096386,,,,,,,,1425.8796,1425.9776,1425.9777,1427.9824,block4,j,1,0,25,25,10,1,1,centre,friendly,neutral,0.6703,,,,,,,,,,,,,,,,,
,,,,,275059,f,y,r,n,13,0,2025-04-01_20h42.48.210,VisualSearchFaces,2024.2.4,Win32,60.24096386,,,,,,,,1428.9836,1429.0917,1429.0918,1431.0856,block4,f,1,0,26,26,38,1,0,bottom_left,threatening,no_target,1.3381,,,,,,,,,,,,,,,,,
,,,,,275059,f,y,r,n,13,0,2025-04-01_20h42.48.210,VisualSearchFaces,2024.2.4,Win32,60.24096386,,,,,,,,1432.0922,1432.203,1432.203,1434.2037,block4,j,1,0,27,27,15,1,1,centre,threatening,neutral,0.594,,,,,,,,,,,,,,,,,
,,,,,275059,f,y,r,n,13,0,2025-04-01_20h42.48.210,VisualSearchFaces,2024.2.4,Win32,60.24096386,,,,,,,,1435.2038,1435.3191,1435.3192,1437.3036,block4,f,1,0,28,28,39,1,0,bottom_right,threatening,no_target,1.0151,,,,,,,,,,,,,,,,,
,,,,,275059,f,y,r,n,13,0,2025-04-01_20h42.48.210,VisualSearchFaces,2024.2.4,Win32,60.24096386,,,,,,,,1438.3108,1438.4163,1438.4164,1440.4123,block4,f,1,0,29,29,29,1,0,bottom_right,neutral,no_target,0.755,,,,,,,,,,,,,,,,,
,,,,,275059,f,y,r,n,13,0,2025-04-01_20h42.48.210,VisualSearchFaces,2024.2.4,Win32,60.24096386,,,,,,,,1441.4107,1441.5099,1441.51,1443.5155,block4,j,1,0,30,30,11,1,1,top_left,friendly,neutral,1.7297,,,,,,,,,,,,,,,,,
,,,,,275059,f,y,r,n,13,0,2025-04-01_20h42.48.210,VisualSearchFaces,2024.2.4,Win32,60.24096386,,,,,,,,1444.5074,1444.6051,1444.6052,1446.6037,block4,j,0,0,31,31,37,1,0,top_right,threatening,no_target,0.5617,,,,,,,,,,,,,,,,,
,,,,,275059,f,y,r,n,13,0,2025-04-01_20h42.48.210,VisualSearchFaces,2024.2.4,Win32,60.24096386,,,,,,,,1447.6074,1447.7167,1447.7168,1449.7102,block4,j,0,0,32,32,30,1,0,centre,friendly,no_target,0.644,,,,,,,,,,,,,,,,,
,,,,,275059,f,y,r,n,13,0,2025-04-01_20h42.48.210,VisualSearchFaces,2024.2.4,Win32,60.24096386,,,,,,,,1450.719,1450.834,1450.834,1452.84,block4,f,1,0,33,33,23,1,0,bottom_left,neutral,no_target,0.6215,,,,,,,,,,,,,,,,,
,,,,,275059,f,y,r,n,13,0,2025-04-01_20h42.48.210,VisualSearchFaces,2024.2.4,Win32,60.24096386,,,,,,,,1453.8436,1453.9555,1453.9556,1455.9368,block4,j,1,0,34,34,7,1,1,top_right,neutral,threatening,0.5255,,,,,,,,,,,,,,,,,
,,,,,275059,f,y,r,n,13,0,2025-04-01_20h42.48.210,VisualSearchFaces,2024.2.4,Win32,60.24096386,,,,,,,,1456.9391,1457.0508,1457.0509,1459.0385,block4,j,1,0,35,35,13,1,1,bottom_left,friendly,neutral,0.592,,,,,,,,,,,,,,,,,
,,,,,275059,f,y,r,n,13,0,2025-04-01_20h42.48.210,VisualSearchFaces,2024.2.4,Win32,60.24096386,,,,,,,,1460.04,1460.1397,1460.1398,1462.1491,block4,j,1,0,36,36,3,1,1,bottom_left,neutral,friendly,0.5582,,,,,,,,,,,,,,,,,
,,,,,275059,f,y,r,n,13,0,2025-04-01_20h42.48.210,VisualSearchFaces,2024.2.4,Win32,60.24096386,,,,,,,,1463.1408,1463.2413,1463.2414,1465.2325,block4,j,1,0,37,37,12,1,1,top_right,friendly,neutral,0.5577,,,,,,,,,,,,,,,,,
,,,,,275059,f,y,r,n,13,0,2025-04-01_20h42.48.210,VisualSearchFaces,2024.2.4,Win32,60.24096386,,,,,,,,1466.2534,1466.3813,1466.3813,1468.3738,block4,f,0,0,38,38,16,1,1,top_left,threatening,neutral,0.5082,,,,,,,,,,,,,,,,,
,,,,,275059,f,y,r,n,13,0,2025-04-01_20h42.48.210,VisualSearchFaces,2024.2.4,Win32,60.24096386,,,,,,,,1469.3709,1469.4771,1469.4772,1471.4656,block4,f,1,0,39,39,34,1,0,bottom_right,friendly,no_target,1.2286,,,,,,,,,,,,,,,,,
,,,,,275059,f,y,r,n,13,0,2025-04-01_20h42.48.210,VisualSearchFaces,2024.2.4,Win32,60.24096386,,,,,,,,1472.4639,1472.5807,1472.5808,1474.586,block4,j,1,1,0,40,9,1,1,bottom_right,neutral,threatening,0.966,,,,,,,,,,,,,,,,,
,,,,,275059,f,y,r,n,13,0,2025-04-01_20h42.48.210,VisualSearchFaces,2024.2.4,Win32,60.24096386,,,,,,,,1475.586,1475.6861,1475.6862,1477.6913,block4,j,1,1,1,41,16,1,1,top_left,threatening,neutral,0.6583,,,,,,,,,,,,,,,,,
,,,,,275059,f,y,r,n,13,0,2025-04-01_20h42.48.210,VisualSearchFaces,2024.2.4,Win32,60.24096386,,,,,,,,1478.6771,1478.7962,1478.7963,1480.7856,block4,j,1,1,2,42,19,1,1,bottom_right,threatening,neutral,1.2223,,,,,,,,,,,,,,,,,
,,,,,275059,f,y,r,n,13,0,2025-04-01_20h42.48.210,VisualSearchFaces,2024.2.4,Win32,60.24096386,,,,,,,,1481.7896,1481.9063,1481.9064,1483.912,block4,j,1,1,3,43,0,1,1,centre,neutral,friendly,0.6701,,,,,,,,,,,,,,,,,
,,,,,275059,f,y,r,n,13,0,2025-04-01_20h42.48.210,VisualSearchFaces,2024.2.4,Win32,60.24096386,,,,,,,,1484.8999,1485.0018,1485.0018,1486.9925,block4,j,1,1,4,44,13,1,1,bottom_left,friendly,neutral,0.7543,,,,,,,,,,,,,,,,,
,,,,,275059,f,y,r,n,13,0,2025-04-01_20h42.48.210,VisualSearchFaces,2024.2.4,Win32,60.24096386,,,,,,,,1487.9915,1488.0934,1488.0934,1490.0893,block4,f,1,1,5,45,25,1,0,centre,neutral,no_target,0.6374,,,,,,,,,,,,,,,,,
,,,,,275059,f,y,r,n,13,0,2025-04-01_20h42.48.210,VisualSearchFaces,2024.2.4,Win32,60.24096386,,,,,,,,1491.0989,1491.2327,1491.2327,1493.2235,block4,j,1,1,6,46,4,1,1,bottom_right,neutral,friendly,0.6084,,,,,,,,,,,,,,,,,
,,,,,275059,f,y,r,n,13,0,2025-04-01_20h42.48.210,VisualSearchFaces,2024.2.4,Win32,60.24096386,,,,,,,,1494.2059,1494.3022,1494.3029,1496.3144,block4,f,1,1,7,47,39,1,0,bottom_right,threatening,no_target,1.0729,,,,,,,,,,,,,,,,,
,,,,,275059,f,y,r,n,13,0,2025-04-01_20h42.48.210,VisualSearchFaces,2024.2.4,Win32,60.24096386,,,,,,,,1497.3083,1497.409,1497.409,1499.3888,block4,j,1,1,8,48,8,1,1,bottom_left,neutral,threatening,0.5782,,,,,,,,,,,,,,,,,
,,,,,275059,f,y,r,n,13,0,2025-04-01_20h42.48.210,VisualSearchFaces,2024.2.4,Win32,60.24096386,,,,,,,,1500.4185,1500.5127,1500.5128,1502.521,block4,j,0,1,9,49,34,1,0,bottom_right,friendly,no_target,1.3556,,,,,,,,,,,,,,,,,
,,,,,275059,f,y,r,n,13,0,2025-04-01_20h42.48.210,VisualSearchFaces,2024.2.4,Win32,60.24096386,,,,,,,,1503.5144,1503.6182,1503.6185,1505.6143,block4,j,1,1,10,50,5,1,1,centre,neutral,threatening,0.5863,,,,,,,,,,,,,,,,,
,,,,,275059,f,y,r,n,13,0,2025-04-01_20h42.48.210,VisualSearchFaces,2024.2.4,Win32,60.24096386,,,,,,,,1506.608,1506.7097,1506.7097,1508.7106,block4,f,1,1,11,51,24,1,0,bottom_right,neutral,no_target,0.6622,,,,,,,,,,,,,,,,,
,,,,,275059,f,y,r,n,13,0,2025-04-01_20h42.48.210,VisualSearchFaces,2024.2.4,Win32,60.24096386,,,,,,,,1509.6918,1509.7979,1509.798,1511.8088,block4,j,1,1,12,52,10,1,1,centre,friendly,neutral,0.5373,,,,,,,,,,,,,,,,,
,,,,,275059,f,y,r,n,13,0,2025-04-01_20h42.48.210,VisualSearchFaces,2024.2.4,Win32,60.24096386,,,,,,,,1512.7941,1512.9083,1512.9083,1514.8992,block4,j,1,1,13,53,11,1,1,top_left,friendly,neutral,0.6627,,,,,,,,,,,,,,,,,
,,,,,275059,f,y,r,n,13,0,2025-04-01_20h42.48.210,VisualSearchFaces,2024.2.4,Win32,60.24096386,,,,,,,,1515.9221,1516.0346,1516.0346,1518.0289,block4,f,1,1,14,54,27,1,0,top_right,neutral,no_target,0.7132,,,,,,,,,,,,,,,,,
,,,,,275059,f,y,r,n,13,0,2025-04-01_20h42.48.210,VisualSearchFaces,2024.2.4,Win32,60.24096386,,,,,,,,1519.025,1519.1244,1519.1244,1521.1243,block4,f,1,1,15,55,20,1,0,centre,neutral,no_target,0.8319,,,,,,,,,,,,,,,,,
,,,,,275059,f,y,r,n,13,0,2025-04-01_20h42.48.210,VisualSearchFaces,2024.2.4,Win32,60.24096386,,,,,,,,1522.1296,1522.2436,1522.2437,1524.2468,block4,j,0,1,16,56,36,1,0,top_left,threatening,no_target,0.4041,,,,,,,,,,,,,,,,,
,,,,,275059,f,y,r,n,13,0,2025-04-01_20h42.48.210,VisualSearchFaces,2024.2.4,Win32,60.24096386,,,,,,,,1525.2354,1525.3366,1525.3366,1527.3148,block4,j,1,1,17,57,14,1,1,bottom_right,friendly,neutral,0.5492,,,,,,,,,,,,,,,,,
,,,,,275059,f,y,r,n,13,0,2025-04-01_20h42.48.210,VisualSearchFaces,2024.2.4,Win32,60.24096386,,,,,,,,1528.3452,1528.4431,1528.4432,1530.4506,block4,f,1,1,18,58,28,1,0,bottom_left,neutral,no_target,0.6002,,,,,,,,,,,,,,,,,
,,,,,275059,f,y,r,n,13,0,2025-04-01_20h42.48.210,VisualSearchFaces,2024.2.4,Win32,60.24096386,,,,,,,,1531.4275,1531.5301,1531.5301,1533.5263,block4,f,1,1,19,59,31,1,0,top_left,friendly,no_target,0.9474,,,,,,,,,,,,,,,,,
,,,,,275059,f,y,r,n,13,0,2025-04-01_20h42.48.210,VisualSearchFaces,2024.2.4,Win32,60.24096386,,,,,,,,1534.5362,1534.638,1534.638,1536.627,block4,j,1,1,20,60,6,1,1,top_left,neutral,threatening,0.75,,,,,,,,,,,,,,,,,
,,,,,275059,f,y,r,n,13,0,2025-04-01_20h42.48.210,VisualSearchFaces,2024.2.4,Win32,60.24096386,,,,,,,,1537.6531,1537.767,1537.7671,1539.78,block4,j,0,1,21,61,37,1,0,top_right,threatening,no_target,0.5663,,,,,,,,,,,,,,,,,
,,,,,275059,f,y,r,n,13,0,2025-04-01_20h42.48.210,VisualSearchFaces,2024.2.4,Win32,60.24096386,,,,,,,,1540.7728,1540.8818,1540.882,1542.8531,block4,j,1,1,22,62,2,1,1,top_right,neutral,friendly,0.5335,,,,,,,,,,,,,,,,,
,,,,,275059,f,y,r,n,13,0,2025-04-01_20h42.48.210,VisualSearchFaces,2024.2.4,Win32,60.24096386,,,,,,,,1543.8937,1544.0084,1544.0084,1546.0016,block4,j,0,1,23,63,32,1,0,top_right,friendly,no_target,0.7712,,,,,,,,,,,,,,,,,
,,,,,275059,f,y,r,n,13,0,2025-04-01_20h42.48.210,VisualSearchFaces,2024.2.4,Win32,60.24096386,,,,,,,,1547.0126,1547.118,1547.118,1549.1197,block4,j,1,1,24,64,18,1,1,bottom_left,threatening,neutral,0.5907,,,,,,,,,,,,,,,,,
,,,,,275059,f,y,r,n,13,0,2025-04-01_20h42.48.210,VisualSearchFaces,2024.2.4,Win32,60.24096386,,,,,,,,1550.1302,1550.2275,1550.2276,1552.2201,block4,f,1,1,25,65,22,1,0,top_right,neutral,no_target,0.5493,,,,,,,,,,,,,,,,,
,,,,,275059,f,y,r,n,13,0,2025-04-01_20h42.48.210,VisualSearchFaces,2024.2.4,Win32,60.24096386,,,,,,,,1553.221,1553.3207,1553.3207,1555.3232,block4,j,0,1,26,66,35,1,0,centre,threatening,no_target,0.7203,,,,,,,,,,,,,,,,,
,,,,,275059,f,y,r,n,13,0,2025-04-01_20h42.48.210,VisualSearchFaces,2024.2.4,Win32,60.24096386,,,,,,,,1556.3201,1556.4219,1556.4219,1558.402,block4,f,1,1,27,67,30,1,0,centre,friendly,no_target,1.0342,,,,,,,,,,,,,,,,,
,,,,,275059,f,y,r,n,13,0,2025-04-01_20h42.48.210,VisualSearchFaces,2024.2.4,Win32,60.24096386,,,,,,,,1559.4293,1559.5434,1559.5435,1561.5502,block4,f,1,1,28,68,33,1,0,bottom_left,friendly,no_target,0.8235,,,,,,,,,,,,,,,,,
,,,,,275059,f,y,r,n,13,0,2025-04-01_20h42.48.210,VisualSearchFaces,2024.2.4,Win32,60.24096386,,,,,,,,1562.534,1562.6366,1562.6366,1564.6327,block4,j,1,1,29,69,17,1,1,top_right,threatening,neutral,0.6957,,,,,,,,,,,,,,,,,
,,,,,275059,f,y,r,n,13,0,2025-04-01_20h42.48.210,VisualSearchFaces,2024.2.4,Win32,60.24096386,,,,,,,,1565.6243,1565.7239,1565.7239,1567.7169,block4,f,1,1,30,70,26,1,0,top_left,neutral,no_target,0.8859,,,,,,,,,,,,,,,,,
,,,,,275059,f,y,r,n,13,0,2025-04-01_20h42.48.210,VisualSearchFaces,2024.2.4,Win32,60.24096386,,,,,,,,1568.7242,1568.8394,1568.8394,1570.8485,block4,f,1,1,31,71,38,1,0,bottom_left,threatening,no_target,1.9326,,,,,,,,,,,,,,,,,
,,,,,275059,f,y,r,n,13,0,2025-04-01_20h42.48.210,VisualSearchFaces,2024.2.4,Win32,60.24096386,,,,,,,,1571.8317,1571.9408,1571.9409,1573.9391,block4,j,1,1,32,72,1,1,1,top_left,neutral,friendly,0.7545,,,,,,,,,,,,,,,,,
,,,,,275059,f,y,r,n,13,0,2025-04-01_20h42.48.210,VisualSearchFaces,2024.2.4,Win32,60.24096386,,,,,,,,1574.9374,1575.0432,1575.0433,1577.0485,block4,f,1,1,33,73,21,1,0,top_left,neutral,no_target,0.7387,,,,,,,,,,,,,,,,,
,,,,,275059,f,y,r,n,13,0,2025-04-01_20h42.48.210,VisualSearchFaces,2024.2.4,Win32,60.24096386,,,,,,,,1578.0376,1578.143,1578.1431,1580.1149,block4,f,1,1,34,74,23,1,0,bottom_left,neutral,no_target,0.7179,,,,,,,,,,,,,,,,,
,,,,,275059,f,y,r,n,13,0,2025-04-01_20h42.48.210,VisualSearchFaces,2024.2.4,Win32,60.24096386,,,,,,,,1581.1438,1581.2491,1581.2491,1583.2425,block4,j,1,1,35,75,15,1,1,centre,threatening,neutral,0.5185,,,,,,,,,,,,,,,,,
,,,,,275059,f,y,r,n,13,0,2025-04-01_20h42.48.210,VisualSearchFaces,2024.2.4,Win32,60.24096386,,,,,,,,1584.2434,1584.3555,1584.3555,1586.3591,block4,j,1,1,36,76,7,1,1,top_right,neutral,threatening,0.5369,,,,,,,,,,,,,,,,,
,,,,,275059,f,y,r,n,13,0,2025-04-01_20h42.48.210,VisualSearchFaces,2024.2.4,Win32,60.24096386,,,,,,,,1587.3808,1587.5124,1587.5125,1589.514,block4,f,1,1,37,77,29,1,0,bottom_right,neutral,no_target,0.5968,,,,,,,,,,,,,,,,,
,,,,,275059,f,y,r,n,13,0,2025-04-01_20h42.48.210,VisualSearchFaces,2024.2.4,Win32,60.24096386,,,,,,,,1590.5054,1590.6238,1590.6238,1592.6136,block4,j,1,1,38,78,12,1,1,top_right,friendly,neutral,0.5707,,,,,,,,,,,,,,,,,
,,,,,275059,f,y,r,n,13,0,2025-04-01_20h42.48.210,VisualSearchFaces,2024.2.4,Win32,60.24096386,,,,,,,,1593.6171,1593.7235,1593.7239,1595.7252,block4,j,1,1,39,79,3,1,1,bottom_left,neutral,friendly,0.7066,,,,,,,,,,,,,,,,,
,,,,,275059,f,y,r,n,13,0,2025-04-01_20h42.48.210,VisualSearchFaces,2024.2.4,Win32,60.24096386,,,,,,,,,,,,,,,,,,,,,,,,,,1595.7274,1615.6685,space,19.9036,,1615.6713,1671.6833,it where stripes and dots. together they looked like faces.,1,[1671.6823999999765],[1671.6825000000003],,,,,
,,,,,275059,f,y,r,n,13,0,2025-04-01_20h42.48.210,VisualSearchFaces,2024.2.4,Win32,60.24096386,,,,,,,,,,,,,,,,,,,,,,,,,,,,,,,,,,,,,1671.6837,1675.1026,space,3.3887,
