Welcome.started,Welcome.stopped,keyboard_space_welcome.keys,keyboard_space_welcome.rt,keyboard_space_welcome.duration,participant,gender,(corrected) normal vision,handedness,exp vse,session,skip_intro,date,expName,psychopyVersion,OS,frameRate,stimulus_exposure.started,stimulus_exposure.stopped,Block_intro.started,Block_intro.stopped,keyboard_space.keys,keyboard_space.rt,keyboard_space.duration,Stimulus.started,Stimulus.stopped,fixation_ending.started,fixation_ending.stopped,block_id,keyboard_response.keys,keyboard_response.corr,keyboard_response.rt,keyboard_response.duration,trials.thisRepN,trials.thisTrialN,trials.thisN,trials.thisIndex,trials.ran,target_presence,target_position,background_emotion,target_emotion,Block_outro.started,Block_outro.stopped,keyboard_space_end.keys,keyboard_space_end.rt,keyboard_space_end.duration,Question_about_stimulus.started,Question_about_stimulus.stopped,textbox_response.text,button.numClicks,button.timesOn,button.timesOff,Thanks.started,Thanks.stopped,keyboard_space_goodbye.keys,keyboard_space_goodbye.rt,keyboard_space_goodbye.duration
0.0016,51.9384,space,51.8492,,275870,f,y,r,n,12,0,2025-04-04_19h40.13.729,VisualSearchFaces,2024.2.4,Win32,59.88023952,,,,,,,,,,,,,,,,,,,,,,,,,,,,,,,,,,,,,,,,,
,,,,,275870,f,y,r,n,12,0,2025-04-04_19h40.13.729,VisualSearchFaces,2024.2.4,Win32,59.88023952,73.1204,76.1275,76.1422,90.3478,space,14.17,,91.3539,91.615,91.6156,93.625,practice1,j,0,1.3014,,0,0,0,33,1,0,bottom_left,friendly,no_target,,,,,,,,,,,,,,,,
,,,,,275870,f,y,r,n,12,0,2025-04-04_19h40.13.729,VisualSearchFaces,2024.2.4,Win32,59.88023952,,,,,,,,94.6206,94.8807,94.8809,96.8797,practice1,j,1,1.1333,,0,1,1,19,1,1,bottom_right,threatening,neutral,,,,,,,,,,,,,,,,
,,,,,275870,f,y,r,n,12,0,2025-04-04_19h40.13.729,VisualSearchFaces,2024.2.4,Win32,59.88023952,,,,,,,,97.8864,98.1469,98.1471,100.1459,practice1,j,1,0.5189,,0,2,2,2,1,1,top_right,neutral,friendly,,,,,,,,,,,,,,,,
,,,,,275870,f,y,r,n,12,0,2025-04-04_19h40.13.729,VisualSearchFaces,2024.2.4,Win32,59.88023952,,,,,,,,101.1504,101.3964,101.3965,103.3961,practice1,j,1,0.7679,,0,3,3,7,1,1,top_right,neutral,threatening,,,,,,,,,,,,,,,,
,,,,,275870,f,y,r,n,12,0,2025-04-04_19h40.13.729,VisualSearchFaces,2024.2.4,Win32,59.88023952,,,,,,,,104.4025,104.6631,104.6632,106.6618,practice1,j,1,0.5966,,0,4,4,4,1,1,bottom_right,neutral,friendly,,,,,,,,,,,,,,,,
,,,,,275870,f,y,r,n,12,0,2025-04-04_19h40.13.729,VisualSearchFaces,2024.2.4,Win32,59.88023952,,,,,,,,107.6661,107.9285,107.9286,109.9281,practice1,j,1,0.7699,,0,5,5,17,1,1,top_right,threatening,neutral,,,,,,,,,,,,,,,,
,,,,,275870,f,y,r,n,12,0,2025-04-04_19h40.13.729,VisualSearchFaces,2024.2.4,Win32,59.88023952,,,,,,,,110.9367,111.1949,111.1952,113.1945,practice1,,0,,,0,6,6,21,1,0,top_left,neutral,no_target,,,,,,,,,,,,,,,,
,,,,,275870,f,y,r,n,12,0,2025-04-04_19h40.13.729,VisualSearchFaces,2024.2.4,Win32,59.88023952,,,,,,,,114.1981,114.4615,114.4616,116.4609,practice1,,0,,,0,7,7,28,1,0,bottom_left,neutral,no_target,,,,,,,,,,,,,,,,
,,,,,275870,f,y,r,n,12,0,2025-04-04_19h40.13.729,VisualSearchFaces,2024.2.4,Win32,59.88023952,,,,,,,,117.4666,117.7272,117.7273,119.7269,practice1,j,0,0.9181,,0,8,8,39,1,0,bottom_right,threatening,no_target,,,,,,,,,,,,,,,,
,,,,,275870,f,y,r,n,12,0,2025-04-04_19h40.13.729,VisualSearchFaces,2024.2.4,Win32,59.88023952,,,,,,,,120.7338,120.9948,120.9951,122.9931,practice1,f,1,1.7335,,0,9,9,31,1,0,top_left,friendly,no_target,,,,,,,,,,,,,,,,
,,,,,275870,f,y,r,n,12,0,2025-04-04_19h40.13.729,VisualSearchFaces,2024.2.4,Win32,59.88023952,,,,,,,,123.9976,124.2596,124.2597,126.2593,practice1,f,1,1.4895,,0,10,10,25,1,0,centre,neutral,no_target,,,,,,,,,,,,,,,,
,,,,,275870,f,y,r,n,12,0,2025-04-04_19h40.13.729,VisualSearchFaces,2024.2.4,Win32,59.88023952,,,,,,,,127.2623,127.5262,127.5262,129.5259,practice1,f,0,1.5002,,0,11,11,11,1,1,top_left,friendly,neutral,,,,,,,,,,,,,,,,
,,,,,275870,f,y,r,n,12,0,2025-04-04_19h40.13.729,VisualSearchFaces,2024.2.4,Win32,59.88023952,,,,,,,,130.5294,130.7922,130.7922,132.7921,practice1,j,1,0.6181,,0,12,12,5,1,1,centre,neutral,threatening,,,,,,,,,,,,,,,,
,,,,,275870,f,y,r,n,12,0,2025-04-04_19h40.13.729,VisualSearchFaces,2024.2.4,Win32,59.88023952,,,,,,,,133.7959,134.0501,134.0502,136.0415,practice1,j,1,1.101,,0,13,13,14,1,1,bottom_right,friendly,neutral,,,,,,,,,,,,,,,,
,,,,,275870,f,y,r,n,12,0,2025-04-04_19h40.13.729,VisualSearchFaces,2024.2.4,Win32,59.88023952,,,,,,,,137.0477,137.3084,137.3084,139.3077,practice1,j,1,0.6992,,0,14,14,10,1,1,centre,friendly,neutral,,,,,,,,,,,,,,,,
,,,,,275870,f,y,r,n,12,0,2025-04-04_19h40.13.729,VisualSearchFaces,2024.2.4,Win32,59.88023952,,,,,,,,140.3115,140.5742,140.5743,142.574,practice1,j,1,0.6516,,0,15,15,9,1,1,bottom_right,neutral,threatening,,,,,,,,,,,,,,,,
,,,,,275870,f,y,r,n,12,0,2025-04-04_19h40.13.729,VisualSearchFaces,2024.2.4,Win32,59.88023952,,,,,,,,143.5805,143.8413,143.8414,145.8408,practice1,f,1,0.8509,,0,16,16,22,1,0,top_right,neutral,no_target,,,,,,,,,,,,,,,,
,,,,,275870,f,y,r,n,12,0,2025-04-04_19h40.13.729,VisualSearchFaces,2024.2.4,Win32,59.88023952,,,,,,,,146.8456,147.1072,147.1073,149.1064,practice1,f,1,0.8352,,0,17,17,29,1,0,bottom_right,neutral,no_target,,,,,,,,,,,,,,,,
,,,,,275870,f,y,r,n,12,0,2025-04-04_19h40.13.729,VisualSearchFaces,2024.2.4,Win32,59.88023952,,,,,,,,150.1103,150.3732,150.3733,152.3729,practice1,,0,,,0,18,18,30,1,0,centre,friendly,no_target,,,,,,,,,,,,,,,,
,,,,,275870,f,y,r,n,12,0,2025-04-04_19h40.13.729,VisualSearchFaces,2024.2.4,Win32,59.88023952,,,,,,,,153.3767,153.6394,153.6395,155.6392,practice1,f,1,0.3676,,0,19,19,36,1,0,top_left,threatening,no_target,,,,,,,,,,,,,,,,
,,,,,275870,f,y,r,n,12,0,2025-04-04_19h40.13.729,VisualSearchFaces,2024.2.4,Win32,59.88023952,,,,,,,,156.6431,156.9059,156.9059,158.9058,practice1,f,1,0.8202,,0,20,20,26,1,0,top_left,neutral,no_target,,,,,,,,,,,,,,,,
,,,,,275870,f,y,r,n,12,0,2025-04-04_19h40.13.729,VisualSearchFaces,2024.2.4,Win32,59.88023952,,,,,,,,159.9112,160.172,160.1721,162.1718,practice1,j,1,1.2005,,0,21,21,12,1,1,top_right,friendly,neutral,,,,,,,,,,,,,,,,
,,,,,275870,f,y,r,n,12,0,2025-04-04_19h40.13.729,VisualSearchFaces,2024.2.4,Win32,59.88023952,,,,,,,,163.1762,163.4385,163.4386,165.438,practice1,j,1,0.3108,,0,22,22,1,1,1,top_left,neutral,friendly,,,,,,,,,,,,,,,,
,,,,,275870,f,y,r,n,12,0,2025-04-04_19h40.13.729,VisualSearchFaces,2024.2.4,Win32,59.88023952,,,,,,,,166.4424,166.7045,166.7046,168.7041,practice1,f,1,1.7028,,0,23,23,24,1,0,bottom_right,neutral,no_target,,,,,,,,,,,,,,,,
,,,,,275870,f,y,r,n,12,0,2025-04-04_19h40.13.729,VisualSearchFaces,2024.2.4,Win32,59.88023952,,,,,,,,169.7087,169.9709,169.9709,171.9706,practice1,j,1,1.2153,,0,24,24,13,1,1,bottom_left,friendly,neutral,,,,,,,,,,,,,,,,
,,,,,275870,f,y,r,n,12,0,2025-04-04_19h40.13.729,VisualSearchFaces,2024.2.4,Win32,59.88023952,,,,,,,,172.9757,173.2373,173.2374,175.2368,practice1,j,1,1.3339,,0,25,25,16,1,1,top_left,threatening,neutral,,,,,,,,,,,,,,,,
,,,,,275870,f,y,r,n,12,0,2025-04-04_19h40.13.729,VisualSearchFaces,2024.2.4,Win32,59.88023952,,,,,,,,176.2456,176.5037,176.5038,178.5034,practice1,f,1,1.3358,,0,26,26,34,1,0,bottom_right,friendly,no_target,,,,,,,,,,,,,,,,
,,,,,275870,f,y,r,n,12,0,2025-04-04_19h40.13.729,VisualSearchFaces,2024.2.4,Win32,59.88023952,,,,,,,,179.5066,179.7695,179.7696,181.7695,practice1,j,0,1.6433,,0,27,27,37,1,0,top_right,threatening,no_target,,,,,,,,,,,,,,,,
,,,,,275870,f,y,r,n,12,0,2025-04-04_19h40.13.729,VisualSearchFaces,2024.2.4,Win32,59.88023952,,,,,,,,182.7763,183.0365,183.0366,185.036,practice1,j,1,1.0187,,0,28,28,3,1,1,bottom_left,neutral,friendly,,,,,,,,,,,,,,,,
,,,,,275870,f,y,r,n,12,0,2025-04-04_19h40.13.729,VisualSearchFaces,2024.2.4,Win32,59.88023952,,,,,,,,186.0416,186.303,186.3031,188.3023,practice1,f,1,1.5965,,0,29,29,23,1,0,bottom_left,neutral,no_target,,,,,,,,,,,,,,,,
,,,,,275870,f,y,r,n,12,0,2025-04-04_19h40.13.729,VisualSearchFaces,2024.2.4,Win32,59.88023952,,,,,,,,189.305,189.5685,189.5685,191.5681,practice1,f,1,0.8837,,0,30,30,35,1,0,centre,threatening,no_target,,,,,,,,,,,,,,,,
,,,,,275870,f,y,r,n,12,0,2025-04-04_19h40.13.729,VisualSearchFaces,2024.2.4,Win32,59.88023952,,,,,,,,192.5718,192.8346,192.8346,194.8343,practice1,j,1,1.1503,,0,31,31,0,1,1,centre,neutral,friendly,,,,,,,,,,,,,,,,
,,,,,275870,f,y,r,n,12,0,2025-04-04_19h40.13.729,VisualSearchFaces,2024.2.4,Win32,59.88023952,,,,,,,,195.8376,196.1009,196.1011,198.1006,practice1,f,1,1.0752,,0,32,32,27,1,0,top_right,neutral,no_target,,,,,,,,,,,,,,,,
,,,,,275870,f,y,r,n,12,0,2025-04-04_19h40.13.729,VisualSearchFaces,2024.2.4,Win32,59.88023952,,,,,,,,199.1081,199.3671,199.3672,201.367,practice1,j,1,1.1517,,0,33,33,6,1,1,top_left,neutral,threatening,,,,,,,,,,,,,,,,
,,,,,275870,f,y,r,n,12,0,2025-04-04_19h40.13.729,VisualSearchFaces,2024.2.4,Win32,59.88023952,,,,,,,,202.3711,202.6335,202.6337,204.6333,practice1,j,1,0.6881,,0,34,34,15,1,1,centre,threatening,neutral,,,,,,,,,,,,,,,,
,,,,,275870,f,y,r,n,12,0,2025-04-04_19h40.13.729,VisualSearchFaces,2024.2.4,Win32,59.88023952,,,,,,,,205.6397,205.9001,205.9002,207.8999,practice1,j,0,0.87,,0,35,35,38,1,0,bottom_left,threatening,no_target,,,,,,,,,,,,,,,,
,,,,,275870,f,y,r,n,12,0,2025-04-04_19h40.13.729,VisualSearchFaces,2024.2.4,Win32,59.88023952,,,,,,,,208.9064,209.166,209.166,211.1658,practice1,f,1,1.4021,,0,36,36,20,1,0,centre,neutral,no_target,,,,,,,,,,,,,,,,
,,,,,275870,f,y,r,n,12,0,2025-04-04_19h40.13.729,VisualSearchFaces,2024.2.4,Win32,59.88023952,,,,,,,,212.1732,212.4327,212.4328,214.4319,practice1,j,1,0.7853,,0,37,37,8,1,1,bottom_left,neutral,threatening,,,,,,,,,,,,,,,,
,,,,,275870,f,y,r,n,12,0,2025-04-04_19h40.13.729,VisualSearchFaces,2024.2.4,Win32,59.88023952,,,,,,,,215.4375,215.6989,215.699,217.6986,practice1,j,1,0.9678,,0,38,38,18,1,1,bottom_left,threatening,neutral,,,,,,,,,,,,,,,,
,,,,,275870,f,y,r,n,12,0,2025-04-04_19h40.13.729,VisualSearchFaces,2024.2.4,Win32,59.88023952,,,,,,,,218.7067,218.965,218.965,220.9597,practice1,,0,,,0,39,39,32,1,0,top_right,friendly,no_target,,,,,,,,,,,,,,,,
,,,,,275870,f,y,r,n,12,0,2025-04-04_19h40.13.729,VisualSearchFaces,2024.2.4,Win32,59.88023952,,,231.3586,243.2904,space,11.8718,,244.2819,244.3949,244.3949,246.3946,practice2,,0,,,0,0,0,27,1,0,top_right,neutral,no_target,220.9625,231.3479,space,10.344,,,,,,,,,,,,
,,,,,275870,f,y,r,n,12,0,2025-04-04_19h40.13.729,VisualSearchFaces,2024.2.4,Win32,59.88023952,,,,,,,,247.3988,247.4952,247.4952,249.4942,practice2,,0,,,0,1,1,32,1,0,top_right,friendly,no_target,,,,,,,,,,,,,,,,
,,,,,275870,f,y,r,n,12,0,2025-04-04_19h40.13.729,VisualSearchFaces,2024.2.4,Win32,59.88023952,,,,,,,,250.5005,250.6149,250.615,252.6109,practice2,j,1,0.7818,,0,2,2,18,1,1,bottom_left,threatening,neutral,,,,,,,,,,,,,,,,
,,,,,275870,f,y,r,n,12,0,2025-04-04_19h40.13.729,VisualSearchFaces,2024.2.4,Win32,59.88023952,,,,,,,,253.6193,253.7113,253.7113,255.71,practice2,f,1,1.3529,,0,3,3,31,1,0,top_left,friendly,no_target,,,,,,,,,,,,,,,,
,,,,,275870,f,y,r,n,12,0,2025-04-04_19h40.13.729,VisualSearchFaces,2024.2.4,Win32,59.88023952,,,,,,,,256.7183,256.8454,256.8454,258.8432,practice2,j,0,1.3514,,0,4,4,38,1,0,bottom_left,threatening,no_target,,,,,,,,,,,,,,,,
,,,,,275870,f,y,r,n,12,0,2025-04-04_19h40.13.729,VisualSearchFaces,2024.2.4,Win32,59.88023952,,,,,,,,259.8466,259.9596,259.9596,261.9598,practice2,j,1,0.836,,0,5,5,17,1,1,top_right,threatening,neutral,,,,,,,,,,,,,,,,
,,,,,275870,f,y,r,n,12,0,2025-04-04_19h40.13.729,VisualSearchFaces,2024.2.4,Win32,59.88023952,,,,,,,,262.9659,263.0764,263.0766,265.0666,practice2,j,1,1.0681,,0,6,6,16,1,1,top_left,threatening,neutral,,,,,,,,,,,,,,,,
,,,,,275870,f,y,r,n,12,0,2025-04-04_19h40.13.729,VisualSearchFaces,2024.2.4,Win32,59.88023952,,,,,,,,266.0814,266.2413,266.2413,268.2421,practice2,f,1,1.0009,,0,7,7,28,1,0,bottom_left,neutral,no_target,,,,,,,,,,,,,,,,
,,,,,275870,f,y,r,n,12,0,2025-04-04_19h40.13.729,VisualSearchFaces,2024.2.4,Win32,59.88023952,,,,,,,,269.2464,269.3585,269.3585,271.369,practice2,f,1,1.9722,,0,8,8,30,1,0,centre,friendly,no_target,,,,,,,,,,,,,,,,
,,,,,275870,f,y,r,n,12,0,2025-04-04_19h40.13.729,VisualSearchFaces,2024.2.4,Win32,59.88023952,,,,,,,,272.3615,272.4748,272.4749,274.4744,practice2,j,1,0.7506,,0,9,9,4,1,1,bottom_right,neutral,friendly,,,,,,,,,,,,,,,,
,,,,,275870,f,y,r,n,12,0,2025-04-04_19h40.13.729,VisualSearchFaces,2024.2.4,Win32,59.88023952,,,,,,,,275.4806,275.5916,275.5917,277.5912,practice2,j,1,0.6196,,0,10,10,2,1,1,top_right,neutral,friendly,,,,,,,,,,,,,,,,
,,,,,275870,f,y,r,n,12,0,2025-04-04_19h40.13.729,VisualSearchFaces,2024.2.4,Win32,59.88023952,,,,,,,,278.5975,278.7077,278.7078,280.7075,practice2,f,1,0.901,,0,11,11,26,1,0,top_left,neutral,no_target,,,,,,,,,,,,,,,,
,,,,,275870,f,y,r,n,12,0,2025-04-04_19h40.13.729,VisualSearchFaces,2024.2.4,Win32,59.88023952,,,,,,,,281.7129,281.8239,281.824,283.8233,practice2,f,1,0.7672,,0,12,12,22,1,0,top_right,neutral,no_target,,,,,,,,,,,,,,,,
,,,,,275870,f,y,r,n,12,0,2025-04-04_19h40.13.729,VisualSearchFaces,2024.2.4,Win32,59.88023952,,,,,,,,284.827,284.9399,284.94,286.9395,practice2,j,1,0.7,,0,13,13,8,1,1,bottom_left,neutral,threatening,,,,,,,,,,,,,,,,
,,,,,275870,f,y,r,n,12,0,2025-04-04_19h40.13.729,VisualSearchFaces,2024.2.4,Win32,59.88023952,,,,,,,,287.9432,288.0562,288.0562,290.0563,practice2,f,0,1.402,,0,14,14,19,1,1,bottom_right,threatening,neutral,,,,,,,,,,,,,,,,
,,,,,275870,f,y,r,n,12,0,2025-04-04_19h40.13.729,VisualSearchFaces,2024.2.4,Win32,59.88023952,,,,,,,,291.0606,291.1581,291.1582,293.156,practice2,j,0,1.3811,,0,15,15,34,1,0,bottom_right,friendly,no_target,,,,,,,,,,,,,,,,
,,,,,275870,f,y,r,n,12,0,2025-04-04_19h40.13.729,VisualSearchFaces,2024.2.4,Win32,59.88023952,,,,,,,,294.1601,294.2724,294.2725,296.2725,practice2,j,1,1.2985,,0,16,16,11,1,1,top_left,friendly,neutral,,,,,,,,,,,,,,,,
,,,,,275870,f,y,r,n,12,0,2025-04-04_19h40.13.729,VisualSearchFaces,2024.2.4,Win32,59.88023952,,,,,,,,297.2768,297.3885,297.3885,299.389,practice2,f,1,0.8692,,0,17,17,29,1,0,bottom_right,neutral,no_target,,,,,,,,,,,,,,,,
,,,,,275870,f,y,r,n,12,0,2025-04-04_19h40.13.729,VisualSearchFaces,2024.2.4,Win32,59.88023952,,,,,,,,300.3935,300.5184,300.5184,302.5209,practice2,f,1,1.7533,,0,18,18,36,1,0,top_left,threatening,no_target,,,,,,,,,,,,,,,,
,,,,,275870,f,y,r,n,12,0,2025-04-04_19h40.13.729,VisualSearchFaces,2024.2.4,Win32,59.88023952,,,,,,,,303.5171,303.6312,303.6313,305.6205,practice2,j,1,0.9401,,0,19,19,5,1,1,centre,neutral,threatening,,,,,,,,,,,,,,,,
,,,,,275870,f,y,r,n,12,0,2025-04-04_19h40.13.729,VisualSearchFaces,2024.2.4,Win32,59.88023952,,,,,,,,306.6279,306.7381,306.7383,308.7385,practice2,f,1,0.8563,,0,20,20,25,1,0,centre,neutral,no_target,,,,,,,,,,,,,,,,
,,,,,275870,f,y,r,n,12,0,2025-04-04_19h40.13.729,VisualSearchFaces,2024.2.4,Win32,59.88023952,,,,,,,,309.7426,309.8543,309.8543,311.8538,practice2,j,1,0.767,,0,21,21,1,1,1,top_left,neutral,friendly,,,,,,,,,,,,,,,,
,,,,,275870,f,y,r,n,12,0,2025-04-04_19h40.13.729,VisualSearchFaces,2024.2.4,Win32,59.88023952,,,,,,,,312.8591,312.9927,312.9927,314.9864,practice2,,0,,,0,22,22,10,1,1,centre,friendly,neutral,,,,,,,,,,,,,,,,
,,,,,275870,f,y,r,n,12,0,2025-04-04_19h40.13.729,VisualSearchFaces,2024.2.4,Win32,59.88023952,,,,,,,,315.9936,316.1057,316.1057,318.1023,practice2,f,1,1.2806,,0,23,23,33,1,0,bottom_left,friendly,no_target,,,,,,,,,,,,,,,,
,,,,,275870,f,y,r,n,12,0,2025-04-04_19h40.13.729,VisualSearchFaces,2024.2.4,Win32,59.88023952,,,,,,,,319.1058,319.2025,319.2025,321.2026,practice2,j,1,0.8687,,0,24,24,12,1,1,top_right,friendly,neutral,,,,,,,,,,,,,,,,
,,,,,275870,f,y,r,n,12,0,2025-04-04_19h40.13.729,VisualSearchFaces,2024.2.4,Win32,59.88023952,,,,,,,,322.2109,322.3066,322.3067,324.3021,practice2,f,0,1.1139,,0,25,25,15,1,1,centre,threatening,neutral,,,,,,,,,,,,,,,,
,,,,,275870,f,y,r,n,12,0,2025-04-04_19h40.13.729,VisualSearchFaces,2024.2.4,Win32,59.88023952,,,,,,,,325.306,325.4182,325.4184,327.4185,practice2,f,1,1.0668,,0,26,26,37,1,0,top_right,threatening,no_target,,,,,,,,,,,,,,,,
,,,,,275870,f,y,r,n,12,0,2025-04-04_19h40.13.729,VisualSearchFaces,2024.2.4,Win32,59.88023952,,,,,,,,328.4215,328.5346,328.5347,330.5349,practice2,j,1,0.8022,,0,27,27,3,1,1,bottom_left,neutral,friendly,,,,,,,,,,,,,,,,
,,,,,275870,f,y,r,n,12,0,2025-04-04_19h40.13.729,VisualSearchFaces,2024.2.4,Win32,59.88023952,,,,,,,,331.5382,331.6509,331.6511,333.6442,practice2,j,1,0.9163,,0,28,28,14,1,1,bottom_right,friendly,neutral,,,,,,,,,,,,,,,,
,,,,,275870,f,y,r,n,12,0,2025-04-04_19h40.13.729,VisualSearchFaces,2024.2.4,Win32,59.88023952,,,,,,,,334.6534,334.7806,334.7806,336.7839,practice2,j,1,0.7704,,0,29,29,0,1,1,centre,neutral,friendly,,,,,,,,,,,,,,,,
,,,,,275870,f,y,r,n,12,0,2025-04-04_19h40.13.729,VisualSearchFaces,2024.2.4,Win32,59.88023952,,,,,,,,337.7887,337.9009,337.9009,339.9003,practice2,f,1,0.786,,0,30,30,23,1,0,bottom_left,neutral,no_target,,,,,,,,,,,,,,,,
,,,,,275870,f,y,r,n,12,0,2025-04-04_19h40.13.729,VisualSearchFaces,2024.2.4,Win32,59.88023952,,,,,,,,340.9061,341.0231,341.0232,343.0166,practice2,j,1,0.7457,,0,31,31,7,1,1,top_right,neutral,threatening,,,,,,,,,,,,,,,,
,,,,,275870,f,y,r,n,12,0,2025-04-04_19h40.13.729,VisualSearchFaces,2024.2.4,Win32,59.88023952,,,,,,,,344.0226,344.1331,344.1331,346.1328,practice2,j,1,0.7356,,0,32,32,9,1,1,bottom_right,neutral,threatening,,,,,,,,,,,,,,,,
,,,,,275870,f,y,r,n,12,0,2025-04-04_19h40.13.729,VisualSearchFaces,2024.2.4,Win32,59.88023952,,,,,,,,347.1349,347.249,347.249,349.2489,practice2,j,1,0.6516,,0,33,33,6,1,1,top_left,neutral,threatening,,,,,,,,,,,,,,,,
,,,,,275870,f,y,r,n,12,0,2025-04-04_19h40.13.729,VisualSearchFaces,2024.2.4,Win32,59.88023952,,,,,,,,350.2515,350.3657,350.3658,352.365,practice2,f,1,1.4822,,0,34,34,21,1,0,top_left,neutral,no_target,,,,,,,,,,,,,,,,
,,,,,275870,f,y,r,n,12,0,2025-04-04_19h40.13.729,VisualSearchFaces,2024.2.4,Win32,59.88023952,,,,,,,,353.3692,353.4815,353.4816,355.4812,practice2,f,1,0.6693,,0,35,35,24,1,0,bottom_right,neutral,no_target,,,,,,,,,,,,,,,,
,,,,,275870,f,y,r,n,12,0,2025-04-04_19h40.13.729,VisualSearchFaces,2024.2.4,Win32,59.88023952,,,,,,,,356.4857,356.5978,356.5978,358.5974,practice2,f,1,0.8199,,0,36,36,20,1,0,centre,neutral,no_target,,,,,,,,,,,,,,,,
,,,,,275870,f,y,r,n,12,0,2025-04-04_19h40.13.729,VisualSearchFaces,2024.2.4,Win32,59.88023952,,,,,,,,359.6043,359.7141,359.7142,361.7139,practice2,j,0,1.0722,,0,37,37,39,1,0,bottom_right,threatening,no_target,,,,,,,,,,,,,,,,
,,,,,275870,f,y,r,n,12,0,2025-04-04_19h40.13.729,VisualSearchFaces,2024.2.4,Win32,59.88023952,,,,,,,,362.7193,362.8306,362.8307,364.8301,practice2,f,1,1.3988,,0,38,38,35,1,0,centre,threatening,no_target,,,,,,,,,,,,,,,,
,,,,,275870,f,y,r,n,12,0,2025-04-04_19h40.13.729,VisualSearchFaces,2024.2.4,Win32,59.88023952,,,,,,,,365.8344,365.9302,365.9303,367.9296,practice2,j,1,0.7675,,0,39,39,13,1,1,bottom_left,friendly,neutral,,,,,,,,,,,,,,,,
,,,,,275870,f,y,r,n,12,0,2025-04-04_19h40.13.729,VisualSearchFaces,2024.2.4,Win32,59.88023952,,,383.9165,391.3266,space,7.3824,,392.333,392.4441,392.4442,394.4436,block1,j,1,1.6336,,0,0,0,11,1,1,top_left,friendly,neutral,367.9339,383.911,space,15.948,,,,,,,,,,,,
,,,,,275870,f,y,r,n,12,0,2025-04-04_19h40.13.729,VisualSearchFaces,2024.2.4,Win32,59.88023952,,,,,,,,395.4485,395.5765,395.5766,397.5761,block1,j,1,0.9851,,0,1,1,2,1,1,top_right,neutral,friendly,,,,,,,,,,,,,,,,
,,,,,275870,f,y,r,n,12,0,2025-04-04_19h40.13.729,VisualSearchFaces,2024.2.4,Win32,59.88023952,,,,,,,,398.5797,398.6926,398.6927,400.693,block1,f,1,0.7344,,0,2,2,22,1,0,top_right,neutral,no_target,,,,,,,,,,,,,,,,
,,,,,275870,f,y,r,n,12,0,2025-04-04_19h40.13.729,VisualSearchFaces,2024.2.4,Win32,59.88023952,,,,,,,,401.6959,401.7958,401.7959,403.792,block1,f,0,1.6167,,0,3,3,13,1,1,bottom_left,friendly,neutral,,,,,,,,,,,,,,,,
,,,,,275870,f,y,r,n,12,0,2025-04-04_19h40.13.729,VisualSearchFaces,2024.2.4,Win32,59.88023952,,,,,,,,404.7965,404.8963,404.8963,406.892,block1,j,1,1.7308,,0,4,4,15,1,1,centre,threatening,neutral,,,,,,,,,,,,,,,,
,,,,,275870,f,y,r,n,12,0,2025-04-04_19h40.13.729,VisualSearchFaces,2024.2.4,Win32,59.88023952,,,,,,,,407.8958,408.004,408.004,410.008,block1,j,1,1.0013,,0,5,5,16,1,1,top_left,threatening,neutral,,,,,,,,,,,,,,,,
,,,,,275870,f,y,r,n,12,0,2025-04-04_19h40.13.729,VisualSearchFaces,2024.2.4,Win32,59.88023952,,,,,,,,411.0124,411.1088,411.1089,413.1074,block1,j,1,0.7474,,0,6,6,7,1,1,top_right,neutral,threatening,,,,,,,,,,,,,,,,
,,,,,275870,f,y,r,n,12,0,2025-04-04_19h40.13.729,VisualSearchFaces,2024.2.4,Win32,59.88023952,,,,,,,,414.1111,414.2097,414.2098,416.207,block1,f,1,1.6503,,0,7,7,32,1,0,top_right,friendly,no_target,,,,,,,,,,,,,,,,
,,,,,275870,f,y,r,n,12,0,2025-04-04_19h40.13.729,VisualSearchFaces,2024.2.4,Win32,59.88023952,,,,,,,,417.2113,417.3238,417.3239,419.3233,block1,f,1,1.016,,0,8,8,38,1,0,bottom_left,threatening,no_target,,,,,,,,,,,,,,,,
,,,,,275870,f,y,r,n,12,0,2025-04-04_19h40.13.729,VisualSearchFaces,2024.2.4,Win32,59.88023952,,,,,,,,420.3287,420.4401,420.4402,422.4404,block1,f,1,0.9955,,0,9,9,36,1,0,top_left,threatening,no_target,,,,,,,,,,,,,,,,
,,,,,275870,f,y,r,n,12,0,2025-04-04_19h40.13.729,VisualSearchFaces,2024.2.4,Win32,59.88023952,,,,,,,,423.4451,423.5425,423.5426,425.5392,block1,f,1,1.0351,,0,10,10,20,1,0,centre,neutral,no_target,,,,,,,,,,,,,,,,
,,,,,275870,f,y,r,n,12,0,2025-04-04_19h40.13.729,VisualSearchFaces,2024.2.4,Win32,59.88023952,,,,,,,,426.5431,426.656,426.6561,428.6555,block1,j,1,0.8054,,0,11,11,5,1,1,centre,neutral,threatening,,,,,,,,,,,,,,,,
,,,,,275870,f,y,r,n,12,0,2025-04-04_19h40.13.729,VisualSearchFaces,2024.2.4,Win32,59.88023952,,,,,,,,429.6596,429.7556,429.7557,431.7551,block1,j,1,0.8346,,0,12,12,8,1,1,bottom_left,neutral,threatening,,,,,,,,,,,,,,,,
,,,,,275870,f,y,r,n,12,0,2025-04-04_19h40.13.729,VisualSearchFaces,2024.2.4,Win32,59.88023952,,,,,,,,432.7587,432.8595,432.8595,434.8547,block1,f,1,1.1425,,0,13,13,31,1,0,top_left,friendly,no_target,,,,,,,,,,,,,,,,
,,,,,275870,f,y,r,n,12,0,2025-04-04_19h40.13.729,VisualSearchFaces,2024.2.4,Win32,59.88023952,,,,,,,,435.8585,435.9552,435.9552,437.955,block1,f,1,1.6158,,0,14,14,27,1,0,top_right,neutral,no_target,,,,,,,,,,,,,,,,
,,,,,275870,f,y,r,n,12,0,2025-04-04_19h40.13.729,VisualSearchFaces,2024.2.4,Win32,59.88023952,,,,,,,,438.9572,439.0551,439.0553,441.0548,block1,j,1,1.0846,,0,15,15,19,1,1,bottom_right,threatening,neutral,,,,,,,,,,,,,,,,
,,,,,275870,f,y,r,n,12,0,2025-04-04_19h40.13.729,VisualSearchFaces,2024.2.4,Win32,59.88023952,,,,,,,,442.0605,442.1938,442.1939,444.1871,block1,j,1,0.9252,,0,16,16,12,1,1,top_right,friendly,neutral,,,,,,,,,,,,,,,,
,,,,,275870,f,y,r,n,12,0,2025-04-04_19h40.13.729,VisualSearchFaces,2024.2.4,Win32,59.88023952,,,,,,,,445.1899,445.3035,445.3035,447.3034,block1,,0,,,0,17,17,34,1,0,bottom_right,friendly,no_target,,,,,,,,,,,,,,,,
,,,,,275870,f,y,r,n,12,0,2025-04-04_19h40.13.729,VisualSearchFaces,2024.2.4,Win32,59.88023952,,,,,,,,448.309,448.4049,448.405,450.4035,block1,f,1,1.7024,,0,18,18,23,1,0,bottom_left,neutral,no_target,,,,,,,,,,,,,,,,
,,,,,275870,f,y,r,n,12,0,2025-04-04_19h40.13.729,VisualSearchFaces,2024.2.4,Win32,59.88023952,,,,,,,,451.4061,451.5194,451.5194,453.5193,block1,j,1,1.1006,,0,19,19,3,1,1,bottom_left,neutral,friendly,,,,,,,,,,,,,,,,
,,,,,275870,f,y,r,n,12,0,2025-04-04_19h40.13.729,VisualSearchFaces,2024.2.4,Win32,59.88023952,,,,,,,,454.5236,454.6212,454.6213,456.6196,block1,j,1,1.2693,,0,20,20,10,1,1,centre,friendly,neutral,,,,,,,,,,,,,,,,
,,,,,275870,f,y,r,n,12,0,2025-04-04_19h40.13.729,VisualSearchFaces,2024.2.4,Win32,59.88023952,,,,,,,,457.6232,457.722,457.7221,459.7185,block1,j,1,0.8146,,0,21,21,6,1,1,top_left,neutral,threatening,,,,,,,,,,,,,,,,
,,,,,275870,f,y,r,n,12,0,2025-04-04_19h40.13.729,VisualSearchFaces,2024.2.4,Win32,59.88023952,,,,,,,,460.722,460.8216,460.8217,462.8186,block1,f,1,0.9656,,0,22,22,37,1,0,top_right,threatening,no_target,,,,,,,,,,,,,,,,
,,,,,275870,f,y,r,n,12,0,2025-04-04_19h40.13.729,VisualSearchFaces,2024.2.4,Win32,59.88023952,,,,,,,,463.8238,463.9528,463.9529,465.9516,block1,j,1,1.215,,0,23,23,4,1,1,bottom_right,neutral,friendly,,,,,,,,,,,,,,,,
,,,,,275870,f,y,r,n,12,0,2025-04-04_19h40.13.729,VisualSearchFaces,2024.2.4,Win32,59.88023952,,,,,,,,466.9558,467.068,467.068,469.0677,block1,j,0,1.2856,,0,24,24,26,1,0,top_left,neutral,no_target,,,,,,,,,,,,,,,,
,,,,,275870,f,y,r,n,12,0,2025-04-04_19h40.13.729,VisualSearchFaces,2024.2.4,Win32,59.88023952,,,,,,,,470.0713,470.1684,470.1685,472.1667,block1,j,0,0.9842,,0,25,25,30,1,0,centre,friendly,no_target,,,,,,,,,,,,,,,,
,,,,,275870,f,y,r,n,12,0,2025-04-04_19h40.13.729,VisualSearchFaces,2024.2.4,Win32,59.88023952,,,,,,,,473.1717,473.3051,473.3053,475.3003,block1,f,1,1.0762,,0,26,26,28,1,0,bottom_left,neutral,no_target,,,,,,,,,,,,,,,,
,,,,,275870,f,y,r,n,12,0,2025-04-04_19h40.13.729,VisualSearchFaces,2024.2.4,Win32,59.88023952,,,,,,,,476.3038,476.4163,476.4164,478.416,block1,f,1,0.8712,,0,27,27,24,1,0,bottom_right,neutral,no_target,,,,,,,,,,,,,,,,
,,,,,275870,f,y,r,n,12,0,2025-04-04_19h40.13.729,VisualSearchFaces,2024.2.4,Win32,59.88023952,,,,,,,,479.4207,479.5328,479.5328,481.5322,block1,f,1,1.0169,,0,28,28,33,1,0,bottom_left,friendly,no_target,,,,,,,,,,,,,,,,
,,,,,275870,f,y,r,n,12,0,2025-04-04_19h40.13.729,VisualSearchFaces,2024.2.4,Win32,59.88023952,,,,,,,,482.539,482.664,482.6641,484.6652,block1,j,1,1.1342,,0,29,29,0,1,1,centre,neutral,friendly,,,,,,,,,,,,,,,,
,,,,,275870,f,y,r,n,12,0,2025-04-04_19h40.13.729,VisualSearchFaces,2024.2.4,Win32,59.88023952,,,,,,,,485.6685,485.7816,485.7817,487.7814,block1,f,1,1.6005,,0,30,30,39,1,0,bottom_right,threatening,no_target,,,,,,,,,,,,,,,,
,,,,,275870,f,y,r,n,12,0,2025-04-04_19h40.13.729,VisualSearchFaces,2024.2.4,Win32,59.88023952,,,,,,,,488.7878,488.9189,488.919,490.9146,block1,j,0,1.151,,0,31,31,29,1,0,bottom_right,neutral,no_target,,,,,,,,,,,,,,,,
,,,,,275870,f,y,r,n,12,0,2025-04-04_19h40.13.729,VisualSearchFaces,2024.2.4,Win32,59.88023952,,,,,,,,491.924,492.0197,492.0198,494.0144,block1,j,1,1.2619,,0,32,32,14,1,1,bottom_right,friendly,neutral,,,,,,,,,,,,,,,,
,,,,,275870,f,y,r,n,12,0,2025-04-04_19h40.13.729,VisualSearchFaces,2024.2.4,Win32,59.88023952,,,,,,,,495.0195,495.1167,495.1167,497.1172,block1,j,1,0.7167,,0,33,33,9,1,1,bottom_right,neutral,threatening,,,,,,,,,,,,,,,,
,,,,,275870,f,y,r,n,12,0,2025-04-04_19h40.13.729,VisualSearchFaces,2024.2.4,Win32,59.88023952,,,,,,,,498.1219,498.2307,498.2307,500.2305,block1,f,1,0.8318,,0,34,34,21,1,0,top_left,neutral,no_target,,,,,,,,,,,,,,,,
,,,,,275870,f,y,r,n,12,0,2025-04-04_19h40.13.729,VisualSearchFaces,2024.2.4,Win32,59.88023952,,,,,,,,501.2374,501.347,501.3471,503.3468,block1,j,1,0.6492,,0,35,35,1,1,1,top_left,neutral,friendly,,,,,,,,,,,,,,,,
,,,,,275870,f,y,r,n,12,0,2025-04-04_19h40.13.729,VisualSearchFaces,2024.2.4,Win32,59.88023952,,,,,,,,504.351,504.4629,504.463,506.463,block1,j,1,1.3153,,0,36,36,18,1,1,bottom_left,threatening,neutral,,,,,,,,,,,,,,,,
,,,,,275870,f,y,r,n,12,0,2025-04-04_19h40.13.729,VisualSearchFaces,2024.2.4,Win32,59.88023952,,,,,,,,507.4676,507.5821,507.5821,509.5796,block1,f,1,1.7661,,0,37,37,25,1,0,centre,neutral,no_target,,,,,,,,,,,,,,,,
,,,,,275870,f,y,r,n,12,0,2025-04-04_19h40.13.729,VisualSearchFaces,2024.2.4,Win32,59.88023952,,,,,,,,510.5842,510.7112,510.7113,512.7122,block1,j,1,1.0021,,0,38,38,17,1,1,top_right,threatening,neutral,,,,,,,,,,,,,,,,
,,,,,275870,f,y,r,n,12,0,2025-04-04_19h40.13.729,VisualSearchFaces,2024.2.4,Win32,59.88023952,,,,,,,,513.722,513.8287,513.8289,515.8281,block1,f,1,1.3017,,0,39,39,35,1,0,centre,threatening,no_target,,,,,,,,,,,,,,,,
,,,,,275870,f,y,r,n,12,0,2025-04-04_19h40.13.729,VisualSearchFaces,2024.2.4,Win32,59.88023952,,,,,,,,516.832,516.9281,516.9282,518.9283,block1,j,1,0.7379,,1,0,40,3,1,1,bottom_left,neutral,friendly,,,,,,,,,,,,,,,,
,,,,,275870,f,y,r,n,12,0,2025-04-04_19h40.13.729,VisualSearchFaces,2024.2.4,Win32,59.88023952,,,,,,,,519.9319,520.0281,520.0282,522.028,block1,f,0,1.4179,,1,1,41,18,1,1,bottom_left,threatening,neutral,,,,,,,,,,,,,,,,
,,,,,275870,f,y,r,n,12,0,2025-04-04_19h40.13.729,VisualSearchFaces,2024.2.4,Win32,59.88023952,,,,,,,,523.0333,523.2007,523.2008,525.1888,block1,j,0,0.8258,,1,2,42,21,1,0,top_left,neutral,no_target,,,,,,,,,,,,,,,,
,,,,,275870,f,y,r,n,12,0,2025-04-04_19h40.13.729,VisualSearchFaces,2024.2.4,Win32,59.88023952,,,,,,,,526.2074,526.3104,526.3106,528.3104,block1,f,1,1.1176,,1,3,43,32,1,0,top_right,friendly,no_target,,,,,,,,,,,,,,,,
,,,,,275870,f,y,r,n,12,0,2025-04-04_19h40.13.729,VisualSearchFaces,2024.2.4,Win32,59.88023952,,,,,,,,529.3152,529.4212,529.4212,531.41,block1,j,0,0.7953,,1,4,44,38,1,0,bottom_left,threatening,no_target,,,,,,,,,,,,,,,,
,,,,,275870,f,y,r,n,12,0,2025-04-04_19h40.13.729,VisualSearchFaces,2024.2.4,Win32,59.88023952,,,,,,,,532.4179,532.5519,532.5519,534.5428,block1,f,1,1.0781,,1,5,45,33,1,0,bottom_left,friendly,no_target,,,,,,,,,,,,,,,,
,,,,,275870,f,y,r,n,12,0,2025-04-04_19h40.13.729,VisualSearchFaces,2024.2.4,Win32,59.88023952,,,,,,,,535.5484,535.7075,535.7076,537.7095,block1,j,1,1.2169,,1,6,46,15,1,1,centre,threatening,neutral,,,,,,,,,,,,,,,,
,,,,,275870,f,y,r,n,12,0,2025-04-04_19h40.13.729,VisualSearchFaces,2024.2.4,Win32,59.88023952,,,,,,,,538.7145,538.8099,538.8099,540.8088,block1,j,1,0.8854,,1,7,47,5,1,1,centre,neutral,threatening,,,,,,,,,,,,,,,,
,,,,,275870,f,y,r,n,12,0,2025-04-04_19h40.13.729,VisualSearchFaces,2024.2.4,Win32,59.88023952,,,,,,,,541.8136,541.9308,541.9308,543.9254,block1,f,1,0.7802,,1,8,48,22,1,0,top_right,neutral,no_target,,,,,,,,,,,,,,,,
,,,,,275870,f,y,r,n,12,0,2025-04-04_19h40.13.729,VisualSearchFaces,2024.2.4,Win32,59.88023952,,,,,,,,544.929,545.0451,545.0452,547.0413,block1,j,1,0.6154,,1,9,49,9,1,1,bottom_right,neutral,threatening,,,,,,,,,,,,,,,,
,,,,,275870,f,y,r,n,12,0,2025-04-04_19h40.13.729,VisualSearchFaces,2024.2.4,Win32,59.88023952,,,,,,,,548.046,548.21,548.21,550.2079,block1,j,1,0.9867,,1,10,50,19,1,1,bottom_right,threatening,neutral,,,,,,,,,,,,,,,,
,,,,,275870,f,y,r,n,12,0,2025-04-04_19h40.13.729,VisualSearchFaces,2024.2.4,Win32,59.88023952,,,,,,,,551.2142,551.3476,551.3476,553.3413,block1,j,1,0.6956,,1,11,51,4,1,1,bottom_right,neutral,friendly,,,,,,,,,,,,,,,,
,,,,,275870,f,y,r,n,12,0,2025-04-04_19h40.13.729,VisualSearchFaces,2024.2.4,Win32,59.88023952,,,,,,,,554.3438,554.4569,554.457,556.4565,block1,f,1,1.0878,,1,12,52,24,1,0,bottom_right,neutral,no_target,,,,,,,,,,,,,,,,
,,,,,275870,f,y,r,n,12,0,2025-04-04_19h40.13.729,VisualSearchFaces,2024.2.4,Win32,59.88023952,,,,,,,,557.4612,557.5732,557.5732,559.5728,block1,j,1,0.6856,,1,13,53,7,1,1,top_right,neutral,threatening,,,,,,,,,,,,,,,,
,,,,,275870,f,y,r,n,12,0,2025-04-04_19h40.13.729,VisualSearchFaces,2024.2.4,Win32,59.88023952,,,,,,,,560.5774,560.6772,560.6772,562.6726,block1,j,0,0.0964,,1,14,54,36,1,0,top_left,threatening,no_target,,,,,,,,,,,,,,,,
,,,,,275870,f,y,r,n,12,0,2025-04-04_19h40.13.729,VisualSearchFaces,2024.2.4,Win32,59.88023952,,,,,,,,563.6761,563.7889,563.7889,565.7891,block1,f,1,1.4682,,1,15,55,31,1,0,top_left,friendly,no_target,,,,,,,,,,,,,,,,
,,,,,275870,f,y,r,n,12,0,2025-04-04_19h40.13.729,VisualSearchFaces,2024.2.4,Win32,59.88023952,,,,,,,,566.7927,566.8899,566.8899,568.8884,block1,f,1,0.9343,,1,16,56,25,1,0,centre,neutral,no_target,,,,,,,,,,,,,,,,
,,,,,275870,f,y,r,n,12,0,2025-04-04_19h40.13.729,VisualSearchFaces,2024.2.4,Win32,59.88023952,,,,,,,,569.8959,570.0235,570.0237,572.0221,block1,j,1,0.798,,1,17,57,13,1,1,bottom_left,friendly,neutral,,,,,,,,,,,,,,,,
,,,,,275870,f,y,r,n,12,0,2025-04-04_19h40.13.729,VisualSearchFaces,2024.2.4,Win32,59.88023952,,,,,,,,573.0289,573.1822,573.1823,575.1714,block1,f,1,1.0888,,1,18,58,28,1,0,bottom_left,neutral,no_target,,,,,,,,,,,,,,,,
,,,,,275870,f,y,r,n,12,0,2025-04-04_19h40.13.729,VisualSearchFaces,2024.2.4,Win32,59.88023952,,,,,,,,576.1773,576.2879,576.288,578.2876,block1,f,1,0.8344,,1,19,59,23,1,0,bottom_left,neutral,no_target,,,,,,,,,,,,,,,,
,,,,,275870,f,y,r,n,12,0,2025-04-04_19h40.13.729,VisualSearchFaces,2024.2.4,Win32,59.88023952,,,,,,,,579.2913,579.4045,579.4046,581.4039,block1,j,1,0.4281,,1,20,60,2,1,1,top_right,neutral,friendly,,,,,,,,,,,,,,,,
,,,,,275870,f,y,r,n,12,0,2025-04-04_19h40.13.729,VisualSearchFaces,2024.2.4,Win32,59.88023952,,,,,,,,582.4104,582.5209,582.521,584.5203,block1,f,1,0.9357,,1,21,61,27,1,0,top_right,neutral,no_target,,,,,,,,,,,,,,,,
,,,,,275870,f,y,r,n,12,0,2025-04-04_19h40.13.729,VisualSearchFaces,2024.2.4,Win32,59.88023952,,,,,,,,585.5263,585.669,585.6693,587.6703,block1,,0,,,1,22,62,37,1,0,top_right,threatening,no_target,,,,,,,,,,,,,,,,
,,,,,275870,f,y,r,n,12,0,2025-04-04_19h40.13.729,VisualSearchFaces,2024.2.4,Win32,59.88023952,,,,,,,,588.6761,588.774,588.774,590.7695,block1,j,1,0.7979,,1,23,63,12,1,1,top_right,friendly,neutral,,,,,,,,,,,,,,,,
,,,,,275870,f,y,r,n,12,0,2025-04-04_19h40.13.729,VisualSearchFaces,2024.2.4,Win32,59.88023952,,,,,,,,591.7728,591.8856,591.8857,593.8853,block1,f,1,0.8678,,1,24,64,34,1,0,bottom_right,friendly,no_target,,,,,,,,,,,,,,,,
,,,,,275870,f,y,r,n,12,0,2025-04-04_19h40.13.729,VisualSearchFaces,2024.2.4,Win32,59.88023952,,,,,,,,594.8926,595.027,595.027,597.0186,block1,f,1,1.0632,,1,25,65,20,1,0,centre,neutral,no_target,,,,,,,,,,,,,,,,
,,,,,275870,f,y,r,n,12,0,2025-04-04_19h40.13.729,VisualSearchFaces,2024.2.4,Win32,59.88023952,,,,,,,,598.0246,598.1353,598.1354,600.1352,block1,j,1,0.6766,,1,26,66,8,1,1,bottom_left,neutral,threatening,,,,,,,,,,,,,,,,
,,,,,275870,f,y,r,n,12,0,2025-04-04_19h40.13.729,VisualSearchFaces,2024.2.4,Win32,59.88023952,,,,,,,,601.1405,601.2866,601.2866,603.2845,block1,j,1,1.1801,,1,27,67,11,1,1,top_left,friendly,neutral,,,,,,,,,,,,,,,,
,,,,,275870,f,y,r,n,12,0,2025-04-04_19h40.13.729,VisualSearchFaces,2024.2.4,Win32,59.88023952,,,,,,,,604.2891,604.388,604.3881,606.3836,block1,j,1,0.8479,,1,28,68,16,1,1,top_left,threatening,neutral,,,,,,,,,,,,,,,,
,,,,,275870,f,y,r,n,12,0,2025-04-04_19h40.13.729,VisualSearchFaces,2024.2.4,Win32,59.88023952,,,,,,,,607.3865,607.5004,607.5006,609.5005,block1,f,0,1.0666,,1,29,69,10,1,1,centre,friendly,neutral,,,,,,,,,,,,,,,,
,,,,,275870,f,y,r,n,12,0,2025-04-04_19h40.13.729,VisualSearchFaces,2024.2.4,Win32,59.88023952,,,,,,,,610.5046,610.6059,610.606,612.6001,block1,f,1,0.7299,,1,30,70,26,1,0,top_left,neutral,no_target,,,,,,,,,,,,,,,,
,,,,,275870,f,y,r,n,12,0,2025-04-04_19h40.13.729,VisualSearchFaces,2024.2.4,Win32,59.88023952,,,,,,,,613.6049,613.7143,613.7143,615.7162,block1,j,0,0.8681,,1,31,71,35,1,0,centre,threatening,no_target,,,,,,,,,,,,,,,,
,,,,,275870,f,y,r,n,12,0,2025-04-04_19h40.13.729,VisualSearchFaces,2024.2.4,Win32,59.88023952,,,,,,,,616.7215,616.8543,616.8544,618.8487,block1,f,1,0.714,,1,32,72,29,1,0,bottom_right,neutral,no_target,,,,,,,,,,,,,,,,
,,,,,275870,f,y,r,n,12,0,2025-04-04_19h40.13.729,VisualSearchFaces,2024.2.4,Win32,59.88023952,,,,,,,,619.8532,619.9504,619.9505,621.949,block1,j,1,1.0856,,1,33,73,17,1,1,top_right,threatening,neutral,,,,,,,,,,,,,,,,
,,,,,275870,f,y,r,n,12,0,2025-04-04_19h40.13.729,VisualSearchFaces,2024.2.4,Win32,59.88023952,,,,,,,,622.9537,623.0489,623.0489,625.0484,block1,f,1,1.0165,,1,34,74,39,1,0,bottom_right,threatening,no_target,,,,,,,,,,,,,,,,
,,,,,275870,f,y,r,n,12,0,2025-04-04_19h40.13.729,VisualSearchFaces,2024.2.4,Win32,59.88023952,,,,,,,,626.0539,626.1722,626.1723,628.1644,block1,j,1,1.2588,,1,35,75,14,1,1,bottom_right,friendly,neutral,,,,,,,,,,,,,,,,
,,,,,275870,f,y,r,n,12,0,2025-04-04_19h40.13.729,VisualSearchFaces,2024.2.4,Win32,59.88023952,,,,,,,,629.1693,629.2695,629.2695,631.264,block1,j,1,0.7012,,1,36,76,1,1,1,top_left,neutral,friendly,,,,,,,,,,,,,,,,
,,,,,275870,f,y,r,n,12,0,2025-04-04_19h40.13.729,VisualSearchFaces,2024.2.4,Win32,59.88023952,,,,,,,,632.2702,632.3811,632.3812,634.3814,block1,j,1,0.5844,,1,37,77,6,1,1,top_left,neutral,threatening,,,,,,,,,,,,,,,,
,,,,,275870,f,y,r,n,12,0,2025-04-04_19h40.13.729,VisualSearchFaces,2024.2.4,Win32,59.88023952,,,,,,,,635.3902,635.482,635.4822,637.4802,block1,j,1,0.8037,,1,38,78,0,1,1,centre,neutral,friendly,,,,,,,,,,,,,,,,
,,,,,275870,f,y,r,n,12,0,2025-04-04_19h40.13.729,VisualSearchFaces,2024.2.4,Win32,59.88023952,,,,,,,,638.4887,638.5966,638.5967,640.5961,block1,j,0,1.1279,,1,39,79,30,1,0,centre,friendly,no_target,,,,,,,,,,,,,,,,
,,,,,275870,f,y,r,n,12,0,2025-04-04_19h40.13.729,VisualSearchFaces,2024.2.4,Win32,59.88023952,,,645.7001,651.129,space,5.3989,,652.133,652.2455,652.2456,654.2451,block2,j,1,0.6355,,0,0,0,12,1,1,top_right,friendly,neutral,640.599,645.6955,space,5.0664,,,,,,,,,,,,
,,,,,275870,f,y,r,n,12,0,2025-04-04_19h40.13.729,VisualSearchFaces,2024.2.4,Win32,59.88023952,,,,,,,,655.2508,655.3668,655.3669,657.3615,block2,j,1,0.6933,,0,1,1,9,1,1,bottom_right,neutral,threatening,,,,,,,,,,,,,,,,
,,,,,275870,f,y,r,n,12,0,2025-04-04_19h40.13.729,VisualSearchFaces,2024.2.4,Win32,59.88023952,,,,,,,,658.3653,658.481,658.4811,660.477,block2,j,1,0.4156,,0,2,2,1,1,1,top_left,neutral,friendly,,,,,,,,,,,,,,,,
,,,,,275870,f,y,r,n,12,0,2025-04-04_19h40.13.729,VisualSearchFaces,2024.2.4,Win32,59.88023952,,,,,,,,661.4837,661.6217,661.6218,663.6106,block2,j,0,0.8055,,0,3,3,39,1,0,bottom_right,threatening,no_target,,,,,,,,,,,,,,,,
,,,,,275870,f,y,r,n,12,0,2025-04-04_19h40.13.729,VisualSearchFaces,2024.2.4,Win32,59.88023952,,,,,,,,664.6155,664.7558,664.7558,666.7437,block2,j,1,0.7538,,0,4,4,3,1,1,bottom_left,neutral,friendly,,,,,,,,,,,,,,,,
,,,,,275870,f,y,r,n,12,0,2025-04-04_19h40.13.729,VisualSearchFaces,2024.2.4,Win32,59.88023952,,,,,,,,667.7663,667.877,667.8772,669.8761,block2,f,1,0.6021,,0,5,5,27,1,0,top_right,neutral,no_target,,,,,,,,,,,,,,,,
,,,,,275870,f,y,r,n,12,0,2025-04-04_19h40.13.729,VisualSearchFaces,2024.2.4,Win32,59.88023952,,,,,,,,670.8828,671.0218,671.0218,673.0259,block2,j,0,0.8219,,0,6,6,36,1,0,top_left,threatening,no_target,,,,,,,,,,,,,,,,
,,,,,275870,f,y,r,n,12,0,2025-04-04_19h40.13.729,VisualSearchFaces,2024.2.4,Win32,59.88023952,,,,,,,,674.0153,674.115,674.1151,676.109,block2,j,1,1.3288,,0,7,7,17,1,1,top_right,threatening,neutral,,,,,,,,,,,,,,,,
,,,,,275870,f,y,r,n,12,0,2025-04-04_19h40.13.729,VisualSearchFaces,2024.2.4,Win32,59.88023952,,,,,,,,677.1138,677.2563,677.2564,679.2586,block2,f,1,0.8162,,0,8,8,26,1,0,top_left,neutral,no_target,,,,,,,,,,,,,,,,
,,,,,275870,f,y,r,n,12,0,2025-04-04_19h40.13.729,VisualSearchFaces,2024.2.4,Win32,59.88023952,,,,,,,,680.2634,680.3724,680.3724,682.3744,block2,j,1,0.8699,,0,9,9,19,1,1,bottom_right,threatening,neutral,,,,,,,,,,,,,,,,
,,,,,275870,f,y,r,n,12,0,2025-04-04_19h40.13.729,VisualSearchFaces,2024.2.4,Win32,59.88023952,,,,,,,,683.3797,683.5091,683.5091,685.5081,block2,j,1,0.7326,,0,10,10,7,1,1,top_right,neutral,threatening,,,,,,,,,,,,,,,,
,,,,,275870,f,y,r,n,12,0,2025-04-04_19h40.13.729,VisualSearchFaces,2024.2.4,Win32,59.88023952,,,,,,,,686.51,686.6238,686.6239,688.6241,block2,f,1,0.9272,,0,11,11,24,1,0,bottom_right,neutral,no_target,,,,,,,,,,,,,,,,
,,,,,275870,f,y,r,n,12,0,2025-04-04_19h40.13.729,VisualSearchFaces,2024.2.4,Win32,59.88023952,,,,,,,,689.6301,689.7413,689.7413,691.7398,block2,j,1,0.5385,,0,12,12,2,1,1,top_right,neutral,friendly,,,,,,,,,,,,,,,,
,,,,,275870,f,y,r,n,12,0,2025-04-04_19h40.13.729,VisualSearchFaces,2024.2.4,Win32,59.88023952,,,,,,,,692.7466,692.8569,692.8569,694.8563,block2,f,1,0.6653,,0,13,13,23,1,0,bottom_left,neutral,no_target,,,,,,,,,,,,,,,,
,,,,,275870,f,y,r,n,12,0,2025-04-04_19h40.13.729,VisualSearchFaces,2024.2.4,Win32,59.88023952,,,,,,,,695.8596,695.9728,695.9728,697.973,block2,j,1,0.9697,,0,14,14,18,1,1,bottom_left,threatening,neutral,,,,,,,,,,,,,,,,
,,,,,275870,f,y,r,n,12,0,2025-04-04_19h40.13.729,VisualSearchFaces,2024.2.4,Win32,59.88023952,,,,,,,,698.9794,699.1114,699.1114,701.1053,block2,f,0,1.2977,,0,15,15,5,1,1,centre,neutral,threatening,,,,,,,,,,,,,,,,
,,,,,275870,f,y,r,n,12,0,2025-04-04_19h40.13.729,VisualSearchFaces,2024.2.4,Win32,59.88023952,,,,,,,,702.1082,702.2079,702.2079,704.2051,block2,j,1,0.8499,,0,16,16,11,1,1,top_left,friendly,neutral,,,,,,,,,,,,,,,,
,,,,,275870,f,y,r,n,12,0,2025-04-04_19h40.13.729,VisualSearchFaces,2024.2.4,Win32,59.88023952,,,,,,,,705.2079,705.3216,705.3218,707.3216,block2,j,1,0.7186,,0,17,17,10,1,1,centre,friendly,neutral,,,,,,,,,,,,,,,,
,,,,,275870,f,y,r,n,12,0,2025-04-04_19h40.13.729,VisualSearchFaces,2024.2.4,Win32,59.88023952,,,,,,,,708.3254,708.4379,708.438,710.4375,block2,j,1,0.7495,,0,18,18,6,1,1,top_left,neutral,threatening,,,,,,,,,,,,,,,,
,,,,,275870,f,y,r,n,12,0,2025-04-04_19h40.13.729,VisualSearchFaces,2024.2.4,Win32,59.88023952,,,,,,,,711.4403,711.5374,711.5374,713.5376,block2,f,1,0.6001,,0,19,19,22,1,0,top_right,neutral,no_target,,,,,,,,,,,,,,,,
,,,,,275870,f,y,r,n,12,0,2025-04-04_19h40.13.729,VisualSearchFaces,2024.2.4,Win32,59.88023952,,,,,,,,714.5397,714.6536,714.6537,716.6535,block2,f,1,1.0684,,0,20,20,32,1,0,top_right,friendly,no_target,,,,,,,,,,,,,,,,
,,,,,275870,f,y,r,n,12,0,2025-04-04_19h40.13.729,VisualSearchFaces,2024.2.4,Win32,59.88023952,,,,,,,,717.6564,717.7587,717.7588,719.7534,block2,j,1,0.8296,,0,21,21,15,1,1,centre,threatening,neutral,,,,,,,,,,,,,,,,
,,,,,275870,f,y,r,n,12,0,2025-04-04_19h40.13.729,VisualSearchFaces,2024.2.4,Win32,59.88023952,,,,,,,,720.7589,720.8781,720.8783,722.8697,block2,f,1,1.1085,,0,22,22,33,1,0,bottom_left,friendly,no_target,,,,,,,,,,,,,,,,
,,,,,275870,f,y,r,n,12,0,2025-04-04_19h40.13.729,VisualSearchFaces,2024.2.4,Win32,59.88023952,,,,,,,,723.8754,724.0026,724.0027,726.0028,block2,f,1,1.2664,,0,23,23,20,1,0,centre,neutral,no_target,,,,,,,,,,,,,,,,
,,,,,275870,f,y,r,n,12,0,2025-04-04_19h40.13.729,VisualSearchFaces,2024.2.4,Win32,59.88023952,,,,,,,,727.0073,727.1194,727.1194,729.1187,block2,f,1,0.8198,,0,24,24,21,1,0,top_left,neutral,no_target,,,,,,,,,,,,,,,,
,,,,,275870,f,y,r,n,12,0,2025-04-04_19h40.13.729,VisualSearchFaces,2024.2.4,Win32,59.88023952,,,,,,,,730.122,730.2265,730.2265,732.2182,block2,f,1,0.9458,,0,25,25,30,1,0,centre,friendly,no_target,,,,,,,,,,,,,,,,
,,,,,275870,f,y,r,n,12,0,2025-04-04_19h40.13.729,VisualSearchFaces,2024.2.4,Win32,59.88023952,,,,,,,,733.2215,733.3302,733.3302,735.3347,block2,f,1,0.6173,,0,26,26,34,1,0,bottom_right,friendly,no_target,,,,,,,,,,,,,,,,
,,,,,275870,f,y,r,n,12,0,2025-04-04_19h40.13.729,VisualSearchFaces,2024.2.4,Win32,59.88023952,,,,,,,,736.3224,736.4284,736.4285,738.4174,block2,f,0,1.0718,,0,27,27,0,1,1,centre,neutral,friendly,,,,,,,,,,,,,,,,
,,,,,275870,f,y,r,n,12,0,2025-04-04_19h40.13.729,VisualSearchFaces,2024.2.4,Win32,59.88023952,,,,,,,,739.4211,739.534,739.5341,741.534,block2,j,0,0.9178,,0,28,28,38,1,0,bottom_left,threatening,no_target,,,,,,,,,,,,,,,,
,,,,,275870,f,y,r,n,12,0,2025-04-04_19h40.13.729,VisualSearchFaces,2024.2.4,Win32,59.88023952,,,,,,,,742.5383,742.6391,742.6392,744.6334,block2,f,0,0.8293,,0,29,29,8,1,1,bottom_left,neutral,threatening,,,,,,,,,,,,,,,,
,,,,,275870,f,y,r,n,12,0,2025-04-04_19h40.13.729,VisualSearchFaces,2024.2.4,Win32,59.88023952,,,,,,,,745.6365,745.7499,745.7499,747.7495,block2,f,1,0.7981,,0,30,30,29,1,0,bottom_right,neutral,no_target,,,,,,,,,,,,,,,,
,,,,,275870,f,y,r,n,12,0,2025-04-04_19h40.13.729,VisualSearchFaces,2024.2.4,Win32,59.88023952,,,,,,,,748.7532,748.8661,748.8661,750.8658,block2,f,1,1.6224,,0,31,31,31,1,0,top_left,friendly,no_target,,,,,,,,,,,,,,,,
,,,,,275870,f,y,r,n,12,0,2025-04-04_19h40.13.729,VisualSearchFaces,2024.2.4,Win32,59.88023952,,,,,,,,751.8708,751.9825,751.9826,753.9824,block2,j,1,0.8845,,0,32,32,14,1,1,bottom_right,friendly,neutral,,,,,,,,,,,,,,,,
,,,,,275870,f,y,r,n,12,0,2025-04-04_19h40.13.729,VisualSearchFaces,2024.2.4,Win32,59.88023952,,,,,,,,754.988,755.0979,755.0979,757.099,block2,j,0,1.2884,,0,33,33,35,1,0,centre,threatening,no_target,,,,,,,,,,,,,,,,
,,,,,275870,f,y,r,n,12,0,2025-04-04_19h40.13.729,VisualSearchFaces,2024.2.4,Win32,59.88023952,,,,,,,,758.101,758.2151,758.2151,760.2149,block2,f,0,1.1856,,0,34,34,13,1,1,bottom_left,friendly,neutral,,,,,,,,,,,,,,,,
,,,,,275870,f,y,r,n,12,0,2025-04-04_19h40.13.729,VisualSearchFaces,2024.2.4,Win32,59.88023952,,,,,,,,761.2178,761.3313,761.3313,763.3313,block2,f,1,1.135,,0,35,35,28,1,0,bottom_left,neutral,no_target,,,,,,,,,,,,,,,,
,,,,,275870,f,y,r,n,12,0,2025-04-04_19h40.13.729,VisualSearchFaces,2024.2.4,Win32,59.88023952,,,,,,,,764.336,764.4482,764.4482,766.4484,block2,j,1,0.702,,0,36,36,4,1,1,bottom_right,neutral,friendly,,,,,,,,,,,,,,,,
,,,,,275870,f,y,r,n,12,0,2025-04-04_19h40.13.729,VisualSearchFaces,2024.2.4,Win32,59.88023952,,,,,,,,767.4512,767.5639,767.5641,769.5639,block2,f,1,0.8827,,0,37,37,25,1,0,centre,neutral,no_target,,,,,,,,,,,,,,,,
,,,,,275870,f,y,r,n,12,0,2025-04-04_19h40.13.729,VisualSearchFaces,2024.2.4,Win32,59.88023952,,,,,,,,770.5675,770.665,770.6651,772.664,block2,j,1,0.6989,,0,38,38,16,1,1,top_left,threatening,neutral,,,,,,,,,,,,,,,,
,,,,,275870,f,y,r,n,12,0,2025-04-04_19h40.13.729,VisualSearchFaces,2024.2.4,Win32,59.88023952,,,,,,,,773.6671,773.7798,773.7798,775.7795,block2,f,1,0.9002,,0,39,39,37,1,0,top_right,threatening,no_target,,,,,,,,,,,,,,,,
,,,,,275870,f,y,r,n,12,0,2025-04-04_19h40.13.729,VisualSearchFaces,2024.2.4,Win32,59.88023952,,,,,,,,776.784,776.881,776.8811,778.8794,block2,f,1,1.0349,,1,0,40,29,1,0,bottom_right,neutral,no_target,,,,,,,,,,,,,,,,
,,,,,275870,f,y,r,n,12,0,2025-04-04_19h40.13.729,VisualSearchFaces,2024.2.4,Win32,59.88023952,,,,,,,,779.8817,779.9958,779.9958,781.9954,block2,j,1,0.5532,,1,1,41,9,1,1,bottom_right,neutral,threatening,,,,,,,,,,,,,,,,
,,,,,275870,f,y,r,n,12,0,2025-04-04_19h40.13.729,VisualSearchFaces,2024.2.4,Win32,59.88023952,,,,,,,,783.0005,783.1272,783.1273,785.1288,block2,j,1,0.918,,1,2,42,14,1,1,bottom_right,friendly,neutral,,,,,,,,,,,,,,,,
,,,,,275870,f,y,r,n,12,0,2025-04-04_19h40.13.729,VisualSearchFaces,2024.2.4,Win32,59.88023952,,,,,,,,786.1347,786.2342,786.2343,788.2285,block2,j,0,1.6776,,1,3,43,37,1,0,top_right,threatening,no_target,,,,,,,,,,,,,,,,
,,,,,275870,f,y,r,n,12,0,2025-04-04_19h40.13.729,VisualSearchFaces,2024.2.4,Win32,59.88023952,,,,,,,,789.231,789.3445,789.3445,791.3442,block2,f,0,1.5837,,1,4,44,10,1,1,centre,friendly,neutral,,,,,,,,,,,,,,,,
,,,,,275870,f,y,r,n,12,0,2025-04-04_19h40.13.729,VisualSearchFaces,2024.2.4,Win32,59.88023952,,,,,,,,792.3476,792.451,792.4511,794.4447,block2,j,0,0.7289,,1,5,45,35,1,0,centre,threatening,no_target,,,,,,,,,,,,,,,,
,,,,,275870,f,y,r,n,12,0,2025-04-04_19h40.13.729,VisualSearchFaces,2024.2.4,Win32,59.88023952,,,,,,,,795.4489,795.5716,795.5716,797.5602,block2,f,1,0.9893,,1,6,46,22,1,0,top_right,neutral,no_target,,,,,,,,,,,,,,,,
,,,,,275870,f,y,r,n,12,0,2025-04-04_19h40.13.729,VisualSearchFaces,2024.2.4,Win32,59.88023952,,,,,,,,798.5633,798.6601,798.6601,800.6605,block2,j,0,0.9015,,1,7,47,38,1,0,bottom_left,threatening,no_target,,,,,,,,,,,,,,,,
,,,,,275870,f,y,r,n,12,0,2025-04-04_19h40.13.729,VisualSearchFaces,2024.2.4,Win32,59.88023952,,,,,,,,801.6644,801.7995,801.7995,803.7928,block2,j,1,1.0654,,1,8,48,6,1,1,top_left,neutral,threatening,,,,,,,,,,,,,,,,
,,,,,275870,f,y,r,n,12,0,2025-04-04_19h40.13.729,VisualSearchFaces,2024.2.4,Win32,59.88023952,,,,,,,,804.797,804.9095,804.9095,806.9095,block2,j,1,0.7841,,1,9,49,7,1,1,top_right,neutral,threatening,,,,,,,,,,,,,,,,
,,,,,275870,f,y,r,n,12,0,2025-04-04_19h40.13.729,VisualSearchFaces,2024.2.4,Win32,59.88023952,,,,,,,,807.9146,808.0137,808.0137,810.0092,block2,j,1,0.6815,,1,10,50,11,1,1,top_left,friendly,neutral,,,,,,,,,,,,,,,,
,,,,,275870,f,y,r,n,12,0,2025-04-04_19h40.13.729,VisualSearchFaces,2024.2.4,Win32,59.88023952,,,,,,,,811.0127,811.1324,811.1325,813.1254,block2,f,0,1.0965,,1,11,51,5,1,1,centre,neutral,threatening,,,,,,,,,,,,,,,,
,,,,,275870,f,y,r,n,12,0,2025-04-04_19h40.13.729,VisualSearchFaces,2024.2.4,Win32,59.88023952,,,,,,,,814.1305,814.2338,814.2339,816.225,block2,j,1,1.0234,,1,12,52,19,1,1,bottom_right,threatening,neutral,,,,,,,,,,,,,,,,
,,,,,275870,f,y,r,n,12,0,2025-04-04_19h40.13.729,VisualSearchFaces,2024.2.4,Win32,59.88023952,,,,,,,,817.2285,817.3252,817.3253,819.3245,block2,f,0,0.8006,,1,13,53,3,1,1,bottom_left,neutral,friendly,,,,,,,,,,,,,,,,
,,,,,275870,f,y,r,n,12,0,2025-04-04_19h40.13.729,VisualSearchFaces,2024.2.4,Win32,59.88023952,,,,,,,,820.3339,820.4414,820.4415,822.4409,block2,j,1,0.7816,,1,14,54,12,1,1,top_right,friendly,neutral,,,,,,,,,,,,,,,,
,,,,,275870,f,y,r,n,12,0,2025-04-04_19h40.13.729,VisualSearchFaces,2024.2.4,Win32,59.88023952,,,,,,,,823.4431,823.557,823.5571,825.5574,block2,f,1,0.8666,,1,15,55,24,1,0,bottom_right,neutral,no_target,,,,,,,,,,,,,,,,
,,,,,275870,f,y,r,n,12,0,2025-04-04_19h40.13.729,VisualSearchFaces,2024.2.4,Win32,59.88023952,,,,,,,,826.5604,826.6737,826.6738,828.6736,block2,j,1,0.5861,,1,16,56,1,1,1,top_left,neutral,friendly,,,,,,,,,,,,,,,,
,,,,,275870,f,y,r,n,12,0,2025-04-04_19h40.13.729,VisualSearchFaces,2024.2.4,Win32,59.88023952,,,,,,,,829.6782,829.8168,829.8168,831.8065,block2,j,1,0.8123,,1,17,57,16,1,1,top_left,threatening,neutral,,,,,,,,,,,,,,,,
,,,,,275870,f,y,r,n,12,0,2025-04-04_19h40.13.729,VisualSearchFaces,2024.2.4,Win32,59.88023952,,,,,,,,832.8099,832.9063,832.9063,834.9057,block2,f,1,1.0166,,1,18,58,36,1,0,top_left,threatening,no_target,,,,,,,,,,,,,,,,
,,,,,275870,f,y,r,n,12,0,2025-04-04_19h40.13.729,VisualSearchFaces,2024.2.4,Win32,59.88023952,,,,,,,,835.9097,836.0225,836.0226,838.0224,block2,,0,,,1,19,59,32,1,0,top_right,friendly,no_target,,,,,,,,,,,,,,,,
,,,,,275870,f,y,r,n,12,0,2025-04-04_19h40.13.729,VisualSearchFaces,2024.2.4,Win32,59.88023952,,,,,,,,839.0244,839.1384,839.1384,841.1382,block2,j,1,0.7182,,1,20,60,0,1,1,centre,neutral,friendly,,,,,,,,,,,,,,,,
,,,,,275870,f,y,r,n,12,0,2025-04-04_19h40.13.729,VisualSearchFaces,2024.2.4,Win32,59.88023952,,,,,,,,842.1414,842.2547,842.2548,844.2547,block2,f,1,0.817,,1,21,61,27,1,0,top_right,neutral,no_target,,,,,,,,,,,,,,,,
,,,,,275870,f,y,r,n,12,0,2025-04-04_19h40.13.729,VisualSearchFaces,2024.2.4,Win32,59.88023952,,,,,,,,845.2591,845.3716,845.3717,847.3709,block2,j,0,1.0214,,1,22,62,28,1,0,bottom_left,neutral,no_target,,,,,,,,,,,,,,,,
,,,,,275870,f,y,r,n,12,0,2025-04-04_19h40.13.729,VisualSearchFaces,2024.2.4,Win32,59.88023952,,,,,,,,848.3734,848.4874,848.4874,850.487,block2,f,1,1.7533,,1,23,63,26,1,0,top_left,neutral,no_target,,,,,,,,,,,,,,,,
,,,,,275870,f,y,r,n,12,0,2025-04-04_19h40.13.729,VisualSearchFaces,2024.2.4,Win32,59.88023952,,,,,,,,851.4906,851.6035,851.6036,853.6038,block2,f,1,0.6843,,1,24,64,20,1,0,centre,neutral,no_target,,,,,,,,,,,,,,,,
,,,,,275870,f,y,r,n,12,0,2025-04-04_19h40.13.729,VisualSearchFaces,2024.2.4,Win32,59.88023952,,,,,,,,854.6091,854.7204,854.7204,856.72,block2,j,1,0.6188,,1,25,65,8,1,1,bottom_left,neutral,threatening,,,,,,,,,,,,,,,,
,,,,,275870,f,y,r,n,12,0,2025-04-04_19h40.13.729,VisualSearchFaces,2024.2.4,Win32,59.88023952,,,,,,,,857.725,857.8366,857.8366,859.8361,block2,f,1,1.0674,,1,26,66,21,1,0,top_left,neutral,no_target,,,,,,,,,,,,,,,,
,,,,,275870,f,y,r,n,12,0,2025-04-04_19h40.13.729,VisualSearchFaces,2024.2.4,Win32,59.88023952,,,,,,,,860.8395,860.9527,860.9528,862.9522,block2,f,1,0.884,,1,27,67,34,1,0,bottom_right,friendly,no_target,,,,,,,,,,,,,,,,
,,,,,275870,f,y,r,n,12,0,2025-04-04_19h40.13.729,VisualSearchFaces,2024.2.4,Win32,59.88023952,,,,,,,,863.9562,864.0688,864.0689,866.0689,block2,j,1,0.9869,,1,28,68,18,1,1,bottom_left,threatening,neutral,,,,,,,,,,,,,,,,
,,,,,275870,f,y,r,n,12,0,2025-04-04_19h40.13.729,VisualSearchFaces,2024.2.4,Win32,59.88023952,,,,,,,,867.0748,867.2023,867.2024,869.2021,block2,f,0,1.0004,,1,29,69,2,1,1,top_right,neutral,friendly,,,,,,,,,,,,,,,,
,,,,,275870,f,y,r,n,12,0,2025-04-04_19h40.13.729,VisualSearchFaces,2024.2.4,Win32,59.88023952,,,,,,,,870.2069,870.3354,870.3355,872.3351,block2,f,1,0.9669,,1,30,70,30,1,0,centre,friendly,no_target,,,,,,,,,,,,,,,,
,,,,,275870,f,y,r,n,12,0,2025-04-04_19h40.13.729,VisualSearchFaces,2024.2.4,Win32,59.88023952,,,,,,,,873.3398,873.451,873.451,875.4514,block2,f,1,1.454,,1,31,71,39,1,0,bottom_right,threatening,no_target,,,,,,,,,,,,,,,,
,,,,,275870,f,y,r,n,12,0,2025-04-04_19h40.13.729,VisualSearchFaces,2024.2.4,Win32,59.88023952,,,,,,,,876.4555,876.5669,876.5669,878.5676,block2,j,0,0.8042,,1,32,72,23,1,0,bottom_left,neutral,no_target,,,,,,,,,,,,,,,,
,,,,,275870,f,y,r,n,12,0,2025-04-04_19h40.13.729,VisualSearchFaces,2024.2.4,Win32,59.88023952,,,,,,,,879.5727,879.6869,879.6869,881.6841,block2,f,1,1.1991,,1,33,73,25,1,0,centre,neutral,no_target,,,,,,,,,,,,,,,,
,,,,,275870,f,y,r,n,12,0,2025-04-04_19h40.13.729,VisualSearchFaces,2024.2.4,Win32,59.88023952,,,,,,,,882.6922,882.8483,882.8484,884.8503,block2,f,0,1.4527,,1,34,74,13,1,1,bottom_left,friendly,neutral,,,,,,,,,,,,,,,,
,,,,,275870,f,y,r,n,12,0,2025-04-04_19h40.13.729,VisualSearchFaces,2024.2.4,Win32,59.88023952,,,,,,,,885.8555,885.965,885.9651,887.9671,block2,,0,,,1,35,75,17,1,1,top_right,threatening,neutral,,,,,,,,,,,,,,,,
,,,,,275870,f,y,r,n,12,0,2025-04-04_19h40.13.729,VisualSearchFaces,2024.2.4,Win32,59.88023952,,,,,,,,888.9711,889.0841,889.0842,891.0831,block2,j,1,0.9688,,1,36,76,15,1,1,centre,threatening,neutral,,,,,,,,,,,,,,,,
,,,,,275870,f,y,r,n,12,0,2025-04-04_19h40.13.729,VisualSearchFaces,2024.2.4,Win32,59.88023952,,,,,,,,892.0874,892.2101,892.2101,894.1991,block2,f,1,1.0914,,1,37,77,33,1,0,bottom_left,friendly,no_target,,,,,,,,,,,,,,,,
,,,,,275870,f,y,r,n,12,0,2025-04-04_19h40.13.729,VisualSearchFaces,2024.2.4,Win32,59.88023952,,,,,,,,895.2045,895.3314,895.3316,897.3324,block2,j,1,1.2512,,1,38,78,4,1,1,bottom_right,neutral,friendly,,,,,,,,,,,,,,,,
,,,,,275870,f,y,r,n,12,0,2025-04-04_19h40.13.729,VisualSearchFaces,2024.2.4,Win32,59.88023952,,,,,,,,898.3369,898.464,898.4641,900.4651,block2,f,1,0.9351,,1,39,79,31,1,0,top_left,friendly,no_target,,,,,,,,,,,,,,,,
,,,,,275870,f,y,r,n,12,0,2025-04-04_19h40.13.729,VisualSearchFaces,2024.2.4,Win32,59.88023952,,,906.9726,1048.5634,space,141.552,,1049.5697,1049.6964,1049.6965,1051.6964,block3,f,1,1.0165,,0,0,0,38,1,0,bottom_left,threatening,no_target,900.4692,906.9639,space,6.4589,,,,,,,,,,,,
,,,,,275870,f,y,r,n,12,0,2025-04-04_19h40.13.729,VisualSearchFaces,2024.2.4,Win32,59.88023952,,,,,,,,1052.7,1052.8333,1052.8333,1054.8293,block3,f,1,0.914,,0,1,1,22,1,0,top_right,neutral,no_target,,,,,,,,,,,,,,,,
,,,,,275870,f,y,r,n,12,0,2025-04-04_19h40.13.729,VisualSearchFaces,2024.2.4,Win32,59.88023952,,,,,,,,1055.8343,1055.9695,1055.9695,1057.9624,block3,f,0,1.0258,,0,2,2,15,1,1,centre,threatening,neutral,,,,,,,,,,,,,,,,
,,,,,275870,f,y,r,n,12,0,2025-04-04_19h40.13.729,VisualSearchFaces,2024.2.4,Win32,59.88023952,,,,,,,,1058.9695,1059.1505,1059.1505,1061.1453,block3,j,1,0.8446,,0,3,3,2,1,1,top_right,neutral,friendly,,,,,,,,,,,,,,,,
,,,,,275870,f,y,r,n,12,0,2025-04-04_19h40.13.729,VisualSearchFaces,2024.2.4,Win32,59.88023952,,,,,,,,1062.1505,1062.2758,1062.2759,1064.2782,block3,f,1,0.8367,,0,4,4,30,1,0,centre,friendly,no_target,,,,,,,,,,,,,,,,
,,,,,275870,f,y,r,n,12,0,2025-04-04_19h40.13.729,VisualSearchFaces,2024.2.4,Win32,59.88023952,,,,,,,,1065.2837,1065.4094,1065.4094,1067.4118,block3,j,1,1.003,,0,5,5,0,1,1,centre,neutral,friendly,,,,,,,,,,,,,,,,
,,,,,275870,f,y,r,n,12,0,2025-04-04_19h40.13.729,VisualSearchFaces,2024.2.4,Win32,59.88023952,,,,,,,,1068.4165,1068.5309,1068.5309,1070.5277,block3,f,1,0.8991,,0,6,6,21,1,0,top_left,neutral,no_target,,,,,,,,,,,,,,,,
,,,,,275870,f,y,r,n,12,0,2025-04-04_19h40.13.729,VisualSearchFaces,2024.2.4,Win32,59.88023952,,,,,,,,1071.5322,1071.6472,1071.6473,1073.6441,block3,f,1,0.6652,,0,7,7,25,1,0,centre,neutral,no_target,,,,,,,,,,,,,,,,
,,,,,275870,f,y,r,n,12,0,2025-04-04_19h40.13.729,VisualSearchFaces,2024.2.4,Win32,59.88023952,,,,,,,,1074.6497,1074.781,1074.781,1076.7765,block3,f,1,1.0804,,0,8,8,31,1,0,top_left,friendly,no_target,,,,,,,,,,,,,,,,
,,,,,275870,f,y,r,n,12,0,2025-04-04_19h40.13.729,VisualSearchFaces,2024.2.4,Win32,59.88023952,,,,,,,,1077.7804,1077.8766,1077.8767,1079.8763,block3,f,1,0.7522,,0,9,9,34,1,0,bottom_right,friendly,no_target,,,,,,,,,,,,,,,,
,,,,,275870,f,y,r,n,12,0,2025-04-04_19h40.13.729,VisualSearchFaces,2024.2.4,Win32,59.88023952,,,,,,,,1080.8819,1081.0121,1081.0122,1083.0036,block3,j,0,1.5135,,0,10,10,27,1,0,top_right,neutral,no_target,,,,,,,,,,,,,,,,
,,,,,275870,f,y,r,n,12,0,2025-04-04_19h40.13.729,VisualSearchFaces,2024.2.4,Win32,59.88023952,,,,,,,,1084.0076,1084.1092,1084.1094,1086.1085,block3,j,1,1.053,,0,11,11,5,1,1,centre,neutral,threatening,,,,,,,,,,,,,,,,
,,,,,275870,f,y,r,n,12,0,2025-04-04_19h40.13.729,VisualSearchFaces,2024.2.4,Win32,59.88023952,,,,,,,,1087.1147,1087.2378,1087.2379,1089.2419,block3,f,1,0.9721,,0,12,12,39,1,0,bottom_right,threatening,no_target,,,,,,,,,,,,,,,,
,,,,,275870,f,y,r,n,12,0,2025-04-04_19h40.13.729,VisualSearchFaces,2024.2.4,Win32,59.88023952,,,,,,,,1090.247,1090.3585,1090.3586,1092.3581,block3,f,1,1.3685,,0,13,13,37,1,0,top_right,threatening,no_target,,,,,,,,,,,,,,,,
,,,,,275870,f,y,r,n,12,0,2025-04-04_19h40.13.729,VisualSearchFaces,2024.2.4,Win32,59.88023952,,,,,,,,1093.3601,1093.474,1093.4741,1095.4742,block3,f,1,1.1052,,0,14,14,36,1,0,top_left,threatening,no_target,,,,,,,,,,,,,,,,
,,,,,275870,f,y,r,n,12,0,2025-04-04_19h40.13.729,VisualSearchFaces,2024.2.4,Win32,59.88023952,,,,,,,,1096.4835,1096.6096,1096.6097,1098.6065,block3,j,1,0.9307,,0,15,15,11,1,1,top_left,friendly,neutral,,,,,,,,,,,,,,,,
,,,,,275870,f,y,r,n,12,0,2025-04-04_19h40.13.729,VisualSearchFaces,2024.2.4,Win32,59.88023952,,,,,,,,1099.612,1099.7379,1099.7379,1101.7399,block3,f,1,0.867,,0,16,16,35,1,0,centre,threatening,no_target,,,,,,,,,,,,,,,,
,,,,,275870,f,y,r,n,12,0,2025-04-04_19h40.13.729,VisualSearchFaces,2024.2.4,Win32,59.88023952,,,,,,,,1102.745,1102.866,1102.8661,1104.8562,block3,j,0,0.8561,,0,17,17,23,1,0,bottom_left,neutral,no_target,,,,,,,,,,,,,,,,
,,,,,275870,f,y,r,n,12,0,2025-04-04_19h40.13.729,VisualSearchFaces,2024.2.4,Win32,59.88023952,,,,,,,,1105.8619,1105.973,1105.9732,1107.9671,block3,j,0,0.8672,,0,18,18,28,1,0,bottom_left,neutral,no_target,,,,,,,,,,,,,,,,
,,,,,275870,f,y,r,n,12,0,2025-04-04_19h40.13.729,VisualSearchFaces,2024.2.4,Win32,59.88023952,,,,,,,,1108.9781,1109.1037,1109.1038,1111.106,block3,f,0,0.8704,,0,19,19,18,1,1,bottom_left,threatening,neutral,,,,,,,,,,,,,,,,
,,,,,275870,f,y,r,n,12,0,2025-04-04_19h40.13.729,VisualSearchFaces,2024.2.4,Win32,59.88023952,,,,,,,,1112.1118,1112.2307,1112.2308,1114.2224,block3,f,1,0.8952,,0,20,20,29,1,0,bottom_right,neutral,no_target,,,,,,,,,,,,,,,,
,,,,,275870,f,y,r,n,12,0,2025-04-04_19h40.13.729,VisualSearchFaces,2024.2.4,Win32,59.88023952,,,,,,,,1115.2273,1115.341,1115.341,1117.3382,block3,j,1,0.8143,,0,21,21,12,1,1,top_right,friendly,neutral,,,,,,,,,,,,,,,,
,,,,,275870,f,y,r,n,12,0,2025-04-04_19h40.13.729,VisualSearchFaces,2024.2.4,Win32,59.88023952,,,,,,,,1118.3445,1118.4694,1118.4694,1120.4713,block3,j,1,0.8188,,0,22,22,3,1,1,bottom_left,neutral,friendly,,,,,,,,,,,,,,,,
,,,,,275870,f,y,r,n,12,0,2025-04-04_19h40.13.729,VisualSearchFaces,2024.2.4,Win32,59.88023952,,,,,,,,1121.4761,1121.5907,1121.5908,1123.588,block3,j,1,0.649,,0,23,23,8,1,1,bottom_left,neutral,threatening,,,,,,,,,,,,,,,,
,,,,,275870,f,y,r,n,12,0,2025-04-04_19h40.13.729,VisualSearchFaces,2024.2.4,Win32,59.88023952,,,,,,,,1124.5924,1124.7167,1124.7168,1126.7205,block3,,0,,,0,24,24,14,1,1,bottom_right,friendly,neutral,,,,,,,,,,,,,,,,
,,,,,275870,f,y,r,n,12,0,2025-04-04_19h40.13.729,VisualSearchFaces,2024.2.4,Win32,59.88023952,,,,,,,,1127.7267,1127.8459,1127.8459,1129.8365,block3,j,0,0.9619,,0,25,25,26,1,0,top_left,neutral,no_target,,,,,,,,,,,,,,,,
,,,,,275870,f,y,r,n,12,0,2025-04-04_19h40.13.729,VisualSearchFaces,2024.2.4,Win32,59.88023952,,,,,,,,1130.8424,1130.9566,1130.9567,1132.9529,block3,j,1,0.7473,,0,26,26,13,1,1,bottom_left,friendly,neutral,,,,,,,,,,,,,,,,
,,,,,275870,f,y,r,n,12,0,2025-04-04_19h40.13.729,VisualSearchFaces,2024.2.4,Win32,59.88023952,,,,,,,,1133.9585,1134.0725,1134.0725,1136.0699,block3,f,1,1.2989,,0,27,27,32,1,0,top_right,friendly,no_target,,,,,,,,,,,,,,,,
,,,,,275870,f,y,r,n,12,0,2025-04-04_19h40.13.729,VisualSearchFaces,2024.2.4,Win32,59.88023952,,,,,,,,1137.074,1137.198,1137.198,1139.186,block3,j,1,0.7045,,0,28,28,1,1,1,top_left,neutral,friendly,,,,,,,,,,,,,,,,
,,,,,275870,f,y,r,n,12,0,2025-04-04_19h40.13.729,VisualSearchFaces,2024.2.4,Win32,59.88023952,,,,,,,,1140.2075,1140.3273,1140.3274,1142.3185,block3,j,1,1.0086,,0,29,29,19,1,1,bottom_right,threatening,neutral,,,,,,,,,,,,,,,,
,,,,,275870,f,y,r,n,12,0,2025-04-04_19h40.13.729,VisualSearchFaces,2024.2.4,Win32,59.88023952,,,,,,,,1143.3241,1143.4353,1143.4353,1145.435,block3,j,1,0.9331,,0,30,30,9,1,1,bottom_right,neutral,threatening,,,,,,,,,,,,,,,,
,,,,,275870,f,y,r,n,12,0,2025-04-04_19h40.13.729,VisualSearchFaces,2024.2.4,Win32,59.88023952,,,,,,,,1146.4409,1146.561,1146.5611,1148.5543,block3,j,1,1.3914,,0,31,31,17,1,1,top_right,threatening,neutral,,,,,,,,,,,,,,,,
,,,,,275870,f,y,r,n,12,0,2025-04-04_19h40.13.729,VisualSearchFaces,2024.2.4,Win32,59.88023952,,,,,,,,1149.5573,1149.6814,1149.6814,1151.6841,block3,,0,,,0,32,32,24,1,0,bottom_right,neutral,no_target,,,,,,,,,,,,,,,,
,,,,,275870,f,y,r,n,12,0,2025-04-04_19h40.13.729,VisualSearchFaces,2024.2.4,Win32,59.88023952,,,,,,,,1152.689,1152.8006,1152.8007,1154.8002,block3,f,1,0.8499,,0,33,33,20,1,0,centre,neutral,no_target,,,,,,,,,,,,,,,,
,,,,,275870,f,y,r,n,12,0,2025-04-04_19h40.13.729,VisualSearchFaces,2024.2.4,Win32,59.88023952,,,,,,,,1155.8059,1155.9246,1155.9247,1157.9165,block3,f,0,1.2789,,0,34,34,10,1,1,centre,friendly,neutral,,,,,,,,,,,,,,,,
,,,,,275870,f,y,r,n,12,0,2025-04-04_19h40.13.729,VisualSearchFaces,2024.2.4,Win32,59.88023952,,,,,,,,1158.9228,1159.0407,1159.0408,1161.0325,block3,j,1,0.8092,,0,35,35,7,1,1,top_right,neutral,threatening,,,,,,,,,,,,,,,,
,,,,,275870,f,y,r,n,12,0,2025-04-04_19h40.13.729,VisualSearchFaces,2024.2.4,Win32,59.88023952,,,,,,,,1162.037,1162.1403,1162.1404,1164.1326,block3,j,1,1.1272,,0,36,36,4,1,1,bottom_right,neutral,friendly,,,,,,,,,,,,,,,,
,,,,,275870,f,y,r,n,12,0,2025-04-04_19h40.13.729,VisualSearchFaces,2024.2.4,Win32,59.88023952,,,,,,,,1165.1385,1165.2491,1165.2492,1167.249,block3,j,1,0.7521,,0,37,37,6,1,1,top_left,neutral,threatening,,,,,,,,,,,,,,,,
,,,,,275870,f,y,r,n,12,0,2025-04-04_19h40.13.729,VisualSearchFaces,2024.2.4,Win32,59.88023952,,,,,,,,1168.2541,1168.3745,1168.3745,1170.3652,block3,f,1,1.075,,0,38,38,33,1,0,bottom_left,friendly,no_target,,,,,,,,,,,,,,,,
,,,,,275870,f,y,r,n,12,0,2025-04-04_19h40.13.729,VisualSearchFaces,2024.2.4,Win32,59.88023952,,,,,,,,1171.3703,1171.4843,1171.4843,1173.4812,block3,j,1,0.8681,,0,39,39,16,1,1,top_left,threatening,neutral,,,,,,,,,,,,,,,,
,,,,,275870,f,y,r,n,12,0,2025-04-04_19h40.13.729,VisualSearchFaces,2024.2.4,Win32,59.88023952,,,,,,,,1174.486,1174.6069,1174.6069,1176.5977,block3,j,1,0.6904,,1,0,40,5,1,1,centre,neutral,threatening,,,,,,,,,,,,,,,,
,,,,,275870,f,y,r,n,12,0,2025-04-04_19h40.13.729,VisualSearchFaces,2024.2.4,Win32,59.88023952,,,,,,,,1177.6036,1177.7256,1177.7256,1179.7141,block3,j,0,1.3571,,1,1,41,32,1,0,top_right,friendly,no_target,,,,,,,,,,,,,,,,
,,,,,275870,f,y,r,n,12,0,2025-04-04_19h40.13.729,VisualSearchFaces,2024.2.4,Win32,59.88023952,,,,,,,,1180.7195,1180.8306,1180.8307,1182.8303,block3,j,1,0.8361,,1,2,42,10,1,1,centre,friendly,neutral,,,,,,,,,,,,,,,,
,,,,,275870,f,y,r,n,12,0,2025-04-04_19h40.13.729,VisualSearchFaces,2024.2.4,Win32,59.88023952,,,,,,,,1183.8317,1183.9459,1183.9459,1185.9466,block3,j,1,0.6863,,1,3,43,9,1,1,bottom_right,neutral,threatening,,,,,,,,,,,,,,,,
,,,,,275870,f,y,r,n,12,0,2025-04-04_19h40.13.729,VisualSearchFaces,2024.2.4,Win32,59.88023952,,,,,,,,1186.9507,1187.0463,1187.0464,1189.0459,block3,f,1,0.901,,1,4,44,24,1,0,bottom_right,neutral,no_target,,,,,,,,,,,,,,,,
,,,,,275870,f,y,r,n,12,0,2025-04-04_19h40.13.729,VisualSearchFaces,2024.2.4,Win32,59.88023952,,,,,,,,1190.0534,1190.1627,1190.1627,1192.1627,block3,f,1,0.7511,,1,5,45,27,1,0,top_right,neutral,no_target,,,,,,,,,,,,,,,,
,,,,,275870,f,y,r,n,12,0,2025-04-04_19h40.13.729,VisualSearchFaces,2024.2.4,Win32,59.88023952,,,,,,,,1193.1674,1193.2787,1193.2787,1195.2785,block3,f,1,0.9183,,1,6,46,26,1,0,top_left,neutral,no_target,,,,,,,,,,,,,,,,
,,,,,275870,f,y,r,n,12,0,2025-04-04_19h40.13.729,VisualSearchFaces,2024.2.4,Win32,59.88023952,,,,,,,,1196.284,1196.3953,1196.3954,1198.3955,block3,j,1,0.5782,,1,7,47,0,1,1,centre,neutral,friendly,,,,,,,,,,,,,,,,
,,,,,275870,f,y,r,n,12,0,2025-04-04_19h40.13.729,VisualSearchFaces,2024.2.4,Win32,59.88023952,,,,,,,,1199.4,1199.5118,1199.5119,1201.5112,block3,f,1,0.7184,,1,8,48,20,1,0,centre,neutral,no_target,,,,,,,,,,,,,,,,
,,,,,275870,f,y,r,n,12,0,2025-04-04_19h40.13.729,VisualSearchFaces,2024.2.4,Win32,59.88023952,,,,,,,,1202.5169,1202.6275,1202.6277,1204.6276,block3,f,1,0.7012,,1,9,49,23,1,0,bottom_left,neutral,no_target,,,,,,,,,,,,,,,,
,,,,,275870,f,y,r,n,12,0,2025-04-04_19h40.13.729,VisualSearchFaces,2024.2.4,Win32,59.88023952,,,,,,,,1205.6336,1205.7739,1205.774,1207.7773,block3,f,0,1.0037,,1,10,50,17,1,1,top_right,threatening,neutral,,,,,,,,,,,,,,,,
,,,,,275870,f,y,r,n,12,0,2025-04-04_19h40.13.729,VisualSearchFaces,2024.2.4,Win32,59.88023952,,,,,,,,1208.7827,1208.8942,1208.8942,1210.8936,block3,f,1,0.663,,1,11,51,36,1,0,top_left,threatening,no_target,,,,,,,,,,,,,,,,
,,,,,275870,f,y,r,n,12,0,2025-04-04_19h40.13.729,VisualSearchFaces,2024.2.4,Win32,59.88023952,,,,,,,,1211.8977,1212.0119,1212.012,1214.0099,block3,f,1,0.7327,,1,12,52,38,1,0,bottom_left,threatening,no_target,,,,,,,,,,,,,,,,
,,,,,275870,f,y,r,n,12,0,2025-04-04_19h40.13.729,VisualSearchFaces,2024.2.4,Win32,59.88023952,,,,,,,,1215.0145,1215.1379,1215.138,1217.1424,block3,f,1,0.8709,,1,13,53,31,1,0,top_left,friendly,no_target,,,,,,,,,,,,,,,,
,,,,,275870,f,y,r,n,12,0,2025-04-04_19h40.13.729,VisualSearchFaces,2024.2.4,Win32,59.88023952,,,,,,,,1218.1484,1218.2589,1218.2591,1220.2589,block3,j,1,0.7831,,1,14,54,14,1,1,bottom_right,friendly,neutral,,,,,,,,,,,,,,,,
,,,,,275870,f,y,r,n,12,0,2025-04-04_19h40.13.729,VisualSearchFaces,2024.2.4,Win32,59.88023952,,,,,,,,1221.2656,1221.3888,1221.3888,1223.3914,block3,j,1,0.7867,,1,15,55,2,1,1,top_right,neutral,friendly,,,,,,,,,,,,,,,,
,,,,,275870,f,y,r,n,12,0,2025-04-04_19h40.13.729,VisualSearchFaces,2024.2.4,Win32,59.88023952,,,,,,,,1224.3961,1224.5178,1224.5179,1226.5083,block3,f,1,1.3082,,1,16,56,30,1,0,centre,friendly,no_target,,,,,,,,,,,,,,,,
,,,,,275870,f,y,r,n,12,0,2025-04-04_19h40.13.729,VisualSearchFaces,2024.2.4,Win32,59.88023952,,,,,,,,1227.5147,1227.6316,1227.6316,1229.6246,block3,j,1,1.0111,,1,17,57,18,1,1,bottom_left,threatening,neutral,,,,,,,,,,,,,,,,
,,,,,275870,f,y,r,n,12,0,2025-04-04_19h40.13.729,VisualSearchFaces,2024.2.4,Win32,59.88023952,,,,,,,,1230.6306,1230.7542,1230.7542,1232.7576,block3,j,1,0.6715,,1,18,58,7,1,1,top_right,neutral,threatening,,,,,,,,,,,,,,,,
,,,,,275870,f,y,r,n,12,0,2025-04-04_19h40.13.729,VisualSearchFaces,2024.2.4,Win32,59.88023952,,,,,,,,1233.7648,1233.8736,1233.8737,1235.8736,block3,j,1,0.6182,,1,19,59,1,1,1,top_left,neutral,friendly,,,,,,,,,,,,,,,,
,,,,,275870,f,y,r,n,12,0,2025-04-04_19h40.13.729,VisualSearchFaces,2024.2.4,Win32,59.88023952,,,,,,,,1236.8785,1237.0024,1237.0024,1239.0067,block3,j,1,0.6228,,1,20,60,12,1,1,top_right,friendly,neutral,,,,,,,,,,,,,,,,
,,,,,275870,f,y,r,n,12,0,2025-04-04_19h40.13.729,VisualSearchFaces,2024.2.4,Win32,59.88023952,,,,,,,,1240.0113,1240.1233,1240.1234,1242.1229,block3,f,1,0.8515,,1,21,61,34,1,0,bottom_right,friendly,no_target,,,,,,,,,,,,,,,,
,,,,,275870,f,y,r,n,12,0,2025-04-04_19h40.13.729,VisualSearchFaces,2024.2.4,Win32,59.88023952,,,,,,,,1243.1283,1243.258,1243.2581,1245.2559,block3,f,0,0.9474,,1,22,62,19,1,1,bottom_right,threatening,neutral,,,,,,,,,,,,,,,,
,,,,,275870,f,y,r,n,12,0,2025-04-04_19h40.13.729,VisualSearchFaces,2024.2.4,Win32,59.88023952,,,,,,,,1246.2603,1246.4209,1246.421,1248.4221,block3,j,0,0.6481,,1,23,63,28,1,0,bottom_left,neutral,no_target,,,,,,,,,,,,,,,,
,,,,,275870,f,y,r,n,12,0,2025-04-04_19h40.13.729,VisualSearchFaces,2024.2.4,Win32,59.88023952,,,,,,,,1249.4268,1249.5478,1249.5478,1251.5384,block3,f,1,0.9756,,1,24,64,37,1,0,top_right,threatening,no_target,,,,,,,,,,,,,,,,
,,,,,275870,f,y,r,n,12,0,2025-04-04_19h40.13.729,VisualSearchFaces,2024.2.4,Win32,59.88023952,,,,,,,,1252.5439,1252.668,1252.668,1254.6712,block3,j,1,0.6876,,1,25,65,3,1,1,bottom_left,neutral,friendly,,,,,,,,,,,,,,,,
,,,,,275870,f,y,r,n,12,0,2025-04-04_19h40.13.729,VisualSearchFaces,2024.2.4,Win32,59.88023952,,,,,,,,1255.676,1255.7902,1255.7903,1257.7876,block3,f,0,0.9668,,1,26,66,15,1,1,centre,threatening,neutral,,,,,,,,,,,,,,,,
,,,,,275870,f,y,r,n,12,0,2025-04-04_19h40.13.729,VisualSearchFaces,2024.2.4,Win32,59.88023952,,,,,,,,1258.7923,1258.9248,1258.9249,1260.9206,block3,j,0,0.8451,,1,27,67,21,1,0,top_left,neutral,no_target,,,,,,,,,,,,,,,,
,,,,,275870,f,y,r,n,12,0,2025-04-04_19h40.13.729,VisualSearchFaces,2024.2.4,Win32,59.88023952,,,,,,,,1261.9247,1262.0518,1262.0518,1264.0534,block3,f,1,0.8045,,1,28,68,39,1,0,bottom_right,threatening,no_target,,,,,,,,,,,,,,,,
,,,,,275870,f,y,r,n,12,0,2025-04-04_19h40.13.729,VisualSearchFaces,2024.2.4,Win32,59.88023952,,,,,,,,1265.0585,1265.175,1265.175,1267.1701,block3,j,1,0.6467,,1,29,69,16,1,1,top_left,threatening,neutral,,,,,,,,,,,,,,,,
,,,,,275870,f,y,r,n,12,0,2025-04-04_19h40.13.729,VisualSearchFaces,2024.2.4,Win32,59.88023952,,,,,,,,1268.1757,1268.306,1268.306,1270.3026,block3,j,0,1.448,,1,30,70,33,1,0,bottom_left,friendly,no_target,,,,,,,,,,,,,,,,
,,,,,275870,f,y,r,n,12,0,2025-04-04_19h40.13.729,VisualSearchFaces,2024.2.4,Win32,59.88023952,,,,,,,,1271.3076,1271.4295,1271.4296,1273.4191,block3,j,1,1.6416,,1,31,71,6,1,1,top_left,neutral,threatening,,,,,,,,,,,,,,,,
,,,,,275870,f,y,r,n,12,0,2025-04-04_19h40.13.729,VisualSearchFaces,2024.2.4,Win32,59.88023952,,,,,,,,1274.4242,1274.5355,1274.5356,1276.5354,block3,j,1,0.8033,,1,32,72,8,1,1,bottom_left,neutral,threatening,,,,,,,,,,,,,,,,
,,,,,275870,f,y,r,n,12,0,2025-04-04_19h40.13.729,VisualSearchFaces,2024.2.4,Win32,59.88023952,,,,,,,,1277.5425,1277.6737,1277.6738,1279.6676,block3,f,0,0.9116,,1,33,73,11,1,1,top_left,friendly,neutral,,,,,,,,,,,,,,,,
,,,,,275870,f,y,r,n,12,0,2025-04-04_19h40.13.729,VisualSearchFaces,2024.2.4,Win32,59.88023952,,,,,,,,1280.6744,1280.8263,1280.8264,1282.818,block3,j,1,0.8754,,1,34,74,4,1,1,bottom_right,neutral,friendly,,,,,,,,,,,,,,,,
,,,,,275870,f,y,r,n,12,0,2025-04-04_19h40.13.729,VisualSearchFaces,2024.2.4,Win32,59.88023952,,,,,,,,1283.8231,1283.9181,1283.9182,1285.918,block3,f,1,0.8432,,1,35,75,25,1,0,centre,neutral,no_target,,,,,,,,,,,,,,,,
,,,,,275870,f,y,r,n,12,0,2025-04-04_19h40.13.729,VisualSearchFaces,2024.2.4,Win32,59.88023952,,,,,,,,1286.9214,1287.0347,1287.0348,1289.0343,block3,j,0,1.0342,,1,36,76,22,1,0,top_right,neutral,no_target,,,,,,,,,,,,,,,,
,,,,,275870,f,y,r,n,12,0,2025-04-04_19h40.13.729,VisualSearchFaces,2024.2.4,Win32,59.88023952,,,,,,,,1290.039,1290.1511,1290.1512,1292.1506,block3,f,1,1.1177,,1,37,77,29,1,0,bottom_right,neutral,no_target,,,,,,,,,,,,,,,,
,,,,,275870,f,y,r,n,12,0,2025-04-04_19h40.13.729,VisualSearchFaces,2024.2.4,Win32,59.88023952,,,,,,,,1293.1558,1293.284,1293.284,1295.2828,block3,j,1,1.0341,,1,38,78,13,1,1,bottom_left,friendly,neutral,,,,,,,,,,,,,,,,
,,,,,275870,f,y,r,n,12,0,2025-04-04_19h40.13.729,VisualSearchFaces,2024.2.4,Win32,59.88023952,,,,,,,,1296.2877,1296.4141,1296.4141,1298.4158,block3,f,1,0.7861,,1,39,79,35,1,0,centre,threatening,no_target,,,,,,,,,,,,,,,,
,,,,,275870,f,y,r,n,12,0,2025-04-04_19h40.13.729,VisualSearchFaces,2024.2.4,Win32,59.88023952,,,1307.8395,1308.832,space,0.9597,,1309.8368,1309.9524,1309.9524,1311.9478,block4,j,1,0.8145,,0,0,0,1,1,1,top_left,neutral,friendly,1298.4207,1307.8316,space,9.3789,,,,,,,,,,,,
,,,,,275870,f,y,r,n,12,0,2025-04-04_19h40.13.729,VisualSearchFaces,2024.2.4,Win32,59.88023952,,,,,,,,1312.9537,1313.077,1313.0771,1315.0807,block4,j,1,0.7037,,0,1,1,11,1,1,top_left,friendly,neutral,,,,,,,,,,,,,,,,
,,,,,275870,f,y,r,n,12,0,2025-04-04_19h40.13.729,VisualSearchFaces,2024.2.4,Win32,59.88023952,,,,,,,,1316.0852,1316.2022,1316.2023,1318.1972,block4,f,1,0.8002,,0,2,2,25,1,0,centre,neutral,no_target,,,,,,,,,,,,,,,,
,,,,,275870,f,y,r,n,12,0,2025-04-04_19h40.13.729,VisualSearchFaces,2024.2.4,Win32,59.88023952,,,,,,,,1319.202,1319.316,1319.3161,1321.3134,block4,f,1,0.9296,,0,3,3,39,1,0,bottom_right,threatening,no_target,,,,,,,,,,,,,,,,
,,,,,275870,f,y,r,n,12,0,2025-04-04_19h40.13.729,VisualSearchFaces,2024.2.4,Win32,59.88023952,,,,,,,,1322.3179,1322.4298,1322.4298,1324.4294,block4,j,1,0.8844,,0,4,4,3,1,1,bottom_left,neutral,friendly,,,,,,,,,,,,,,,,
,,,,,275870,f,y,r,n,12,0,2025-04-04_19h40.13.729,VisualSearchFaces,2024.2.4,Win32,59.88023952,,,,,,,,1325.4353,1325.5441,1325.5442,1327.5458,block4,f,1,0.9354,,0,5,5,33,1,0,bottom_left,friendly,no_target,,,,,,,,,,,,,,,,
,,,,,275870,f,y,r,n,12,0,2025-04-04_19h40.13.729,VisualSearchFaces,2024.2.4,Win32,59.88023952,,,,,,,,1328.5508,1328.6673,1328.6673,1330.6621,block4,f,1,0.9806,,0,6,6,35,1,0,centre,threatening,no_target,,,,,,,,,,,,,,,,
,,,,,275870,f,y,r,n,12,0,2025-04-04_19h40.13.729,VisualSearchFaces,2024.2.4,Win32,59.88023952,,,,,,,,1331.667,1331.782,1331.782,1333.778,block4,j,1,0.7664,,0,7,7,5,1,1,centre,neutral,threatening,,,,,,,,,,,,,,,,
,,,,,275870,f,y,r,n,12,0,2025-04-04_19h40.13.729,VisualSearchFaces,2024.2.4,Win32,59.88023952,,,,,,,,1334.7832,1334.9016,1334.9016,1336.8946,block4,j,1,0.9442,,0,8,8,13,1,1,bottom_left,friendly,neutral,,,,,,,,,,,,,,,,
,,,,,275870,f,y,r,n,12,0,2025-04-04_19h40.13.729,VisualSearchFaces,2024.2.4,Win32,59.88023952,,,,,,,,1337.8991,1338.0083,1338.0083,1340.0109,block4,f,1,0.74,,0,9,9,24,1,0,bottom_right,neutral,no_target,,,,,,,,,,,,,,,,
,,,,,275870,f,y,r,n,12,0,2025-04-04_19h40.13.729,VisualSearchFaces,2024.2.4,Win32,59.88023952,,,,,,,,1341.0167,1341.1277,1341.1277,1343.1274,block4,f,1,0.6837,,0,10,10,26,1,0,top_left,neutral,no_target,,,,,,,,,,,,,,,,
,,,,,275870,f,y,r,n,12,0,2025-04-04_19h40.13.729,VisualSearchFaces,2024.2.4,Win32,59.88023952,,,,,,,,1344.1326,1344.2456,1344.2456,1346.2437,block4,j,1,0.5678,,0,11,11,2,1,1,top_right,neutral,friendly,,,,,,,,,,,,,,,,
,,,,,275870,f,y,r,n,12,0,2025-04-04_19h40.13.729,VisualSearchFaces,2024.2.4,Win32,59.88023952,,,,,,,,1347.2485,1347.3723,1347.3724,1349.3763,block4,f,1,0.8734,,0,12,12,34,1,0,bottom_right,friendly,no_target,,,,,,,,,,,,,,,,
,,,,,275870,f,y,r,n,12,0,2025-04-04_19h40.13.729,VisualSearchFaces,2024.2.4,Win32,59.88023952,,,,,,,,1350.3819,1350.501,1350.501,1352.4929,block4,j,1,1.1766,,0,13,13,19,1,1,bottom_right,threatening,neutral,,,,,,,,,,,,,,,,
,,,,,275870,f,y,r,n,12,0,2025-04-04_19h40.13.729,VisualSearchFaces,2024.2.4,Win32,59.88023952,,,,,,,,1353.4982,1353.6124,1353.6124,1355.6092,block4,f,1,0.7989,,0,14,14,30,1,0,centre,friendly,no_target,,,,,,,,,,,,,,,,
,,,,,275870,f,y,r,n,12,0,2025-04-04_19h40.13.729,VisualSearchFaces,2024.2.4,Win32,59.88023952,,,,,,,,1356.6147,1356.7392,1356.7392,1358.7421,block4,j,1,0.6713,,0,15,15,7,1,1,top_right,neutral,threatening,,,,,,,,,,,,,,,,
,,,,,275870,f,y,r,n,12,0,2025-04-04_19h40.13.729,VisualSearchFaces,2024.2.4,Win32,59.88023952,,,,,,,,1359.7475,1359.8606,1359.8607,1361.8591,block4,j,1,0.6001,,0,16,16,4,1,1,bottom_right,neutral,friendly,,,,,,,,,,,,,,,,
,,,,,275870,f,y,r,n,12,0,2025-04-04_19h40.13.729,VisualSearchFaces,2024.2.4,Win32,59.88023952,,,,,,,,1362.8625,1362.9698,1362.9698,1364.9686,block4,f,1,0.651,,0,17,17,21,1,0,top_left,neutral,no_target,,,,,,,,,,,,,,,,
,,,,,275870,f,y,r,n,12,0,2025-04-04_19h40.13.729,VisualSearchFaces,2024.2.4,Win32,59.88023952,,,,,,,,1365.9693,1366.0686,1366.0686,1368.0686,block4,j,0,0.8513,,0,18,18,20,1,0,centre,neutral,no_target,,,,,,,,,,,,,,,,
,,,,,275870,f,y,r,n,12,0,2025-04-04_19h40.13.729,VisualSearchFaces,2024.2.4,Win32,59.88023952,,,,,,,,1369.0732,1369.1941,1369.1942,1371.1904,block4,f,0,0.9142,,0,19,19,15,1,1,centre,threatening,neutral,,,,,,,,,,,,,,,,
,,,,,275870,f,y,r,n,12,0,2025-04-04_19h40.13.729,VisualSearchFaces,2024.2.4,Win32,59.88023952,,,,,,,,1372.1973,1372.3165,1372.3166,1374.3068,block4,f,1,0.6729,,0,20,20,32,1,0,top_right,friendly,no_target,,,,,,,,,,,,,,,,
,,,,,275870,f,y,r,n,12,0,2025-04-04_19h40.13.729,VisualSearchFaces,2024.2.4,Win32,59.88023952,,,,,,,,1375.3123,1375.4385,1375.4385,1377.4403,block4,f,1,1.1856,,0,21,21,22,1,0,top_right,neutral,no_target,,,,,,,,,,,,,,,,
,,,,,275870,f,y,r,n,12,0,2025-04-04_19h40.13.729,VisualSearchFaces,2024.2.4,Win32,59.88023952,,,,,,,,1378.4445,1378.5603,1378.5604,1380.556,block4,j,1,0.9021,,0,22,22,16,1,1,top_left,threatening,neutral,,,,,,,,,,,,,,,,
,,,,,275870,f,y,r,n,12,0,2025-04-04_19h40.13.729,VisualSearchFaces,2024.2.4,Win32,59.88023952,,,,,,,,1381.5615,1381.6721,1381.6722,1383.6722,block4,j,1,0.7851,,0,23,23,17,1,1,top_right,threatening,neutral,,,,,,,,,,,,,,,,
,,,,,275870,f,y,r,n,12,0,2025-04-04_19h40.13.729,VisualSearchFaces,2024.2.4,Win32,59.88023952,,,,,,,,1384.6773,1384.7827,1384.7828,1386.7719,block4,j,1,0.8406,,0,24,24,12,1,1,top_right,friendly,neutral,,,,,,,,,,,,,,,,
,,,,,275870,f,y,r,n,12,0,2025-04-04_19h40.13.729,VisualSearchFaces,2024.2.4,Win32,59.88023952,,,,,,,,1387.7776,1387.8724,1387.8724,1389.8717,block4,f,1,0.7323,,0,25,25,31,1,0,top_left,friendly,no_target,,,,,,,,,,,,,,,,
,,,,,275870,f,y,r,n,12,0,2025-04-04_19h40.13.729,VisualSearchFaces,2024.2.4,Win32,59.88023952,,,,,,,,1390.8769,1390.9904,1390.9904,1392.9876,block4,j,1,0.8001,,0,26,26,10,1,1,centre,friendly,neutral,,,,,,,,,,,,,,,,
,,,,,275870,f,y,r,n,12,0,2025-04-04_19h40.13.729,VisualSearchFaces,2024.2.4,Win32,59.88023952,,,,,,,,1393.9931,1394.1112,1394.1113,1396.1042,block4,f,1,1.2928,,0,27,27,37,1,0,top_right,threatening,no_target,,,,,,,,,,,,,,,,
,,,,,275870,f,y,r,n,12,0,2025-04-04_19h40.13.729,VisualSearchFaces,2024.2.4,Win32,59.88023952,,,,,,,,1397.1095,1397.2266,1397.2267,1399.2204,block4,j,0,0.6472,,0,28,28,27,1,0,top_right,neutral,no_target,,,,,,,,,,,,,,,,
,,,,,275870,f,y,r,n,12,0,2025-04-04_19h40.13.729,VisualSearchFaces,2024.2.4,Win32,59.88023952,,,,,,,,1400.2251,1400.3369,1400.337,1402.3368,block4,j,1,0.4858,,0,29,29,8,1,1,bottom_left,neutral,threatening,,,,,,,,,,,,,,,,
,,,,,275870,f,y,r,n,12,0,2025-04-04_19h40.13.729,VisualSearchFaces,2024.2.4,Win32,59.88023952,,,,,,,,1403.3421,1403.4534,1403.4536,1405.4529,block4,j,1,0.5171,,0,30,30,0,1,1,centre,neutral,friendly,,,,,,,,,,,,,,,,
,,,,,275870,f,y,r,n,12,0,2025-04-04_19h40.13.729,VisualSearchFaces,2024.2.4,Win32,59.88023952,,,,,,,,1406.4586,1406.5695,1406.5695,1408.5697,block4,j,1,0.5323,,0,31,31,6,1,1,top_left,neutral,threatening,,,,,,,,,,,,,,,,
,,,,,275870,f,y,r,n,12,0,2025-04-04_19h40.13.729,VisualSearchFaces,2024.2.4,Win32,59.88023952,,,,,,,,1409.5747,1409.6861,1409.6861,1411.6857,block4,f,1,0.7184,,0,32,32,28,1,0,bottom_left,neutral,no_target,,,,,,,,,,,,,,,,
,,,,,275870,f,y,r,n,12,0,2025-04-04_19h40.13.729,VisualSearchFaces,2024.2.4,Win32,59.88023952,,,,,,,,1412.6905,1412.8032,1412.8033,1414.8019,block4,f,1,0.6845,,0,33,33,23,1,0,bottom_left,neutral,no_target,,,,,,,,,,,,,,,,
,,,,,275870,f,y,r,n,12,0,2025-04-04_19h40.13.729,VisualSearchFaces,2024.2.4,Win32,59.88023952,,,,,,,,1415.8083,1415.9435,1415.9436,1417.9346,block4,f,0,1.2127,,0,34,34,14,1,1,bottom_right,friendly,neutral,,,,,,,,,,,,,,,,
,,,,,275870,f,y,r,n,12,0,2025-04-04_19h40.13.729,VisualSearchFaces,2024.2.4,Win32,59.88023952,,,,,,,,1418.9399,1419.1014,1419.1016,1421.1015,block4,j,1,0.6691,,0,35,35,9,1,1,bottom_right,neutral,threatening,,,,,,,,,,,,,,,,
,,,,,275870,f,y,r,n,12,0,2025-04-04_19h40.13.729,VisualSearchFaces,2024.2.4,Win32,59.88023952,,,,,,,,1422.1072,1422.2229,1422.2229,1424.2173,block4,f,1,0.8106,,0,36,36,36,1,0,top_left,threatening,no_target,,,,,,,,,,,,,,,,
,,,,,275870,f,y,r,n,12,0,2025-04-04_19h40.13.729,VisualSearchFaces,2024.2.4,Win32,59.88023952,,,,,,,,1425.2226,1425.3339,1425.3339,1427.3333,block4,j,1,0.8018,,0,37,37,18,1,1,bottom_left,threatening,neutral,,,,,,,,,,,,,,,,
,,,,,275870,f,y,r,n,12,0,2025-04-04_19h40.13.729,VisualSearchFaces,2024.2.4,Win32,59.88023952,,,,,,,,1428.3393,1428.4502,1428.4503,1430.4501,block4,f,1,0.947,,0,38,38,38,1,0,bottom_left,threatening,no_target,,,,,,,,,,,,,,,,
,,,,,275870,f,y,r,n,12,0,2025-04-04_19h40.13.729,VisualSearchFaces,2024.2.4,Win32,59.88023952,,,,,,,,1431.4548,1431.577,1431.577,1433.5662,block4,f,1,1.0239,,0,39,39,29,1,0,bottom_right,neutral,no_target,,,,,,,,,,,,,,,,
,,,,,275870,f,y,r,n,12,0,2025-04-04_19h40.13.729,VisualSearchFaces,2024.2.4,Win32,59.88023952,,,,,,,,1434.572,1434.6824,1434.6825,1436.6825,block4,f,1,0.8216,,1,0,40,27,1,0,top_right,neutral,no_target,,,,,,,,,,,,,,,,
,,,,,275870,f,y,r,n,12,0,2025-04-04_19h40.13.729,VisualSearchFaces,2024.2.4,Win32,59.88023952,,,,,,,,1437.6871,1437.7999,1437.8001,1439.7991,block4,j,1,0.5179,,1,1,41,5,1,1,centre,neutral,threatening,,,,,,,,,,,,,,,,
,,,,,275870,f,y,r,n,12,0,2025-04-04_19h40.13.729,VisualSearchFaces,2024.2.4,Win32,59.88023952,,,,,,,,1440.8034,1440.9735,1440.9735,1442.9655,block4,j,1,0.9906,,1,2,42,11,1,1,top_left,friendly,neutral,,,,,,,,,,,,,,,,
,,,,,275870,f,y,r,n,12,0,2025-04-04_19h40.13.729,VisualSearchFaces,2024.2.4,Win32,59.88023952,,,,,,,,1443.97,1444.0741,1444.0741,1446.0645,block4,j,1,0.7766,,1,3,43,2,1,1,top_right,neutral,friendly,,,,,,,,,,,,,,,,
,,,,,275870,f,y,r,n,12,0,2025-04-04_19h40.13.729,VisualSearchFaces,2024.2.4,Win32,59.88023952,,,,,,,,1447.069,1447.1813,1447.1813,1449.1806,block4,j,1,0.7504,,1,4,44,3,1,1,bottom_left,neutral,friendly,,,,,,,,,,,,,,,,
,,,,,275870,f,y,r,n,12,0,2025-04-04_19h40.13.729,VisualSearchFaces,2024.2.4,Win32,59.88023952,,,,,,,,1450.1853,1450.2808,1450.2808,1452.2804,block4,f,1,0.7688,,1,5,45,23,1,0,bottom_left,neutral,no_target,,,,,,,,,,,,,,,,
,,,,,275870,f,y,r,n,12,0,2025-04-04_19h40.13.729,VisualSearchFaces,2024.2.4,Win32,59.88023952,,,,,,,,1453.2856,1453.3969,1453.3969,1455.3968,block4,f,1,0.6853,,1,6,46,29,1,0,bottom_right,neutral,no_target,,,,,,,,,,,,,,,,
,,,,,275870,f,y,r,n,12,0,2025-04-04_19h40.13.729,VisualSearchFaces,2024.2.4,Win32,59.88023952,,,,,,,,1456.4018,1456.5358,1456.5358,1458.5298,block4,j,1,0.7288,,1,7,47,14,1,1,bottom_right,friendly,neutral,,,,,,,,,,,,,,,,
,,,,,275870,f,y,r,n,12,0,2025-04-04_19h40.13.729,VisualSearchFaces,2024.2.4,Win32,59.88023952,,,,,,,,1459.5354,1459.6465,1459.6466,1461.646,block4,j,1,0.6494,,1,8,48,13,1,1,bottom_left,friendly,neutral,,,,,,,,,,,,,,,,
,,,,,275870,f,y,r,n,12,0,2025-04-04_19h40.13.729,VisualSearchFaces,2024.2.4,Win32,59.88023952,,,,,,,,1462.6546,1462.7763,1462.7763,1464.7791,block4,f,1,0.8206,,1,9,49,28,1,0,bottom_left,neutral,no_target,,,,,,,,,,,,,,,,
,,,,,275870,f,y,r,n,12,0,2025-04-04_19h40.13.729,VisualSearchFaces,2024.2.4,Win32,59.88023952,,,,,,,,1465.7846,1465.9063,1465.9064,1467.8957,block4,j,1,0.8734,,1,10,50,18,1,1,bottom_left,threatening,neutral,,,,,,,,,,,,,,,,
,,,,,275870,f,y,r,n,12,0,2025-04-04_19h40.13.729,VisualSearchFaces,2024.2.4,Win32,59.88023952,,,,,,,,1468.9013,1469.0197,1469.0198,1471.0112,block4,j,1,0.7082,,1,11,51,9,1,1,bottom_right,neutral,threatening,,,,,,,,,,,,,,,,
,,,,,275870,f,y,r,n,12,0,2025-04-04_19h40.13.729,VisualSearchFaces,2024.2.4,Win32,59.88023952,,,,,,,,1472.0181,1472.1427,1472.1428,1474.1447,block4,f,1,0.9533,,1,12,52,39,1,0,bottom_right,threatening,no_target,,,,,,,,,,,,,,,,
,,,,,275870,f,y,r,n,12,0,2025-04-04_19h40.13.729,VisualSearchFaces,2024.2.4,Win32,59.88023952,,,,,,,,1475.1492,1475.2611,1475.2612,1477.2608,block4,f,1,0.6848,,1,13,53,36,1,0,top_left,threatening,no_target,,,,,,,,,,,,,,,,
,,,,,275870,f,y,r,n,12,0,2025-04-04_19h40.13.729,VisualSearchFaces,2024.2.4,Win32,59.88023952,,,,,,,,1478.2656,1478.3934,1478.3935,1480.3941,block4,j,1,0.6535,,1,14,54,0,1,1,centre,neutral,friendly,,,,,,,,,,,,,,,,
,,,,,275870,f,y,r,n,12,0,2025-04-04_19h40.13.729,VisualSearchFaces,2024.2.4,Win32,59.88023952,,,,,,,,1481.3981,1481.5245,1481.5246,1483.5265,block4,f,1,0.7532,,1,15,55,35,1,0,centre,threatening,no_target,,,,,,,,,,,,,,,,
,,,,,275870,f,y,r,n,12,0,2025-04-04_19h40.13.729,VisualSearchFaces,2024.2.4,Win32,59.88023952,,,,,,,,1484.5313,1484.6514,1484.6515,1486.6434,block4,f,1,0.9758,,1,16,56,34,1,0,bottom_right,friendly,no_target,,,,,,,,,,,,,,,,
,,,,,275870,f,y,r,n,12,0,2025-04-04_19h40.13.729,VisualSearchFaces,2024.2.4,Win32,59.88023952,,,,,,,,1487.6475,1487.7745,1487.7746,1489.7757,block4,j,1,0.619,,1,17,57,1,1,1,top_left,neutral,friendly,,,,,,,,,,,,,,,,
,,,,,275870,f,y,r,n,12,0,2025-04-04_19h40.13.729,VisualSearchFaces,2024.2.4,Win32,59.88023952,,,,,,,,1490.7824,1490.8925,1490.8926,1492.8922,block4,f,1,0.7044,,1,18,58,20,1,0,centre,neutral,no_target,,,,,,,,,,,,,,,,
,,,,,275870,f,y,r,n,12,0,2025-04-04_19h40.13.729,VisualSearchFaces,2024.2.4,Win32,59.88023952,,,,,,,,1493.8975,1494.0089,1494.009,1496.0086,block4,f,1,0.6358,,1,19,59,26,1,0,top_left,neutral,no_target,,,,,,,,,,,,,,,,
,,,,,275870,f,y,r,n,12,0,2025-04-04_19h40.13.729,VisualSearchFaces,2024.2.4,Win32,59.88023952,,,,,,,,1497.0138,1497.1334,1497.1336,1499.1249,block4,f,0,1.0261,,1,20,60,15,1,1,centre,threatening,neutral,,,,,,,,,,,,,,,,
,,,,,275870,f,y,r,n,12,0,2025-04-04_19h40.13.729,VisualSearchFaces,2024.2.4,Win32,59.88023952,,,,,,,,1500.1299,1500.2519,1500.252,1502.241,block4,f,1,0.7722,,1,21,61,25,1,0,centre,neutral,no_target,,,,,,,,,,,,,,,,
,,,,,275870,f,y,r,n,12,0,2025-04-04_19h40.13.729,VisualSearchFaces,2024.2.4,Win32,59.88023952,,,,,,,,1503.2459,1503.3632,1503.3633,1505.3573,block4,f,1,1.0118,,1,22,62,30,1,0,centre,friendly,no_target,,,,,,,,,,,,,,,,
,,,,,275870,f,y,r,n,12,0,2025-04-04_19h40.13.729,VisualSearchFaces,2024.2.4,Win32,59.88023952,,,,,,,,1506.3628,1506.4813,1506.4813,1508.4738,block4,j,1,0.6759,,1,23,63,8,1,1,bottom_left,neutral,threatening,,,,,,,,,,,,,,,,
,,,,,275870,f,y,r,n,12,0,2025-04-04_19h40.13.729,VisualSearchFaces,2024.2.4,Win32,59.88023952,,,,,,,,1509.4794,1509.5923,1509.5923,1511.5902,block4,f,1,1.2674,,1,24,64,24,1,0,bottom_right,neutral,no_target,,,,,,,,,,,,,,,,
,,,,,275870,f,y,r,n,12,0,2025-04-04_19h40.13.729,VisualSearchFaces,2024.2.4,Win32,59.88023952,,,,,,,,1512.5945,1512.7212,1512.7213,1514.7228,block4,f,1,0.9027,,1,25,65,33,1,0,bottom_left,friendly,no_target,,,,,,,,,,,,,,,,
,,,,,275870,f,y,r,n,12,0,2025-04-04_19h40.13.729,VisualSearchFaces,2024.2.4,Win32,59.88023952,,,,,,,,1515.7283,1515.8461,1515.8462,1517.8393,block4,j,1,0.8266,,1,26,66,16,1,1,top_left,threatening,neutral,,,,,,,,,,,,,,,,
,,,,,275870,f,y,r,n,12,0,2025-04-04_19h40.13.729,VisualSearchFaces,2024.2.4,Win32,59.88023952,,,,,,,,1518.8442,1518.9559,1518.956,1520.9553,block4,j,1,0.8855,,1,27,67,19,1,1,bottom_right,threatening,neutral,,,,,,,,,,,,,,,,
,,,,,275870,f,y,r,n,12,0,2025-04-04_19h40.13.729,VisualSearchFaces,2024.2.4,Win32,59.88023952,,,,,,,,1521.9601,1522.0668,1522.0668,1524.055,block4,j,1,0.9057,,1,28,68,12,1,1,top_right,friendly,neutral,,,,,,,,,,,,,,,,
,,,,,275870,f,y,r,n,12,0,2025-04-04_19h40.13.729,VisualSearchFaces,2024.2.4,Win32,59.88023952,,,,,,,,1525.0607,1525.1824,1525.1826,1527.1716,block4,j,1,0.6554,,1,29,69,6,1,1,top_left,neutral,threatening,,,,,,,,,,,,,,,,
,,,,,275870,f,y,r,n,12,0,2025-04-04_19h40.13.729,VisualSearchFaces,2024.2.4,Win32,59.88023952,,,,,,,,1528.1763,1528.2933,1528.2934,1530.2866,block4,j,1,1.1131,,1,30,70,17,1,1,top_right,threatening,neutral,,,,,,,,,,,,,,,,
,,,,,275870,f,y,r,n,12,0,2025-04-04_19h40.13.729,VisualSearchFaces,2024.2.4,Win32,59.88023952,,,,,,,,1531.2925,1531.3958,1531.3958,1533.3864,block4,f,0,0.861,,1,31,71,10,1,1,centre,friendly,neutral,,,,,,,,,,,,,,,,
,,,,,275870,f,y,r,n,12,0,2025-04-04_19h40.13.729,VisualSearchFaces,2024.2.4,Win32,59.88023952,,,,,,,,1534.3916,1534.504,1534.5041,1536.5033,block4,f,1,0.7015,,1,32,72,31,1,0,top_left,friendly,no_target,,,,,,,,,,,,,,,,
,,,,,275870,f,y,r,n,12,0,2025-04-04_19h40.13.729,VisualSearchFaces,2024.2.4,Win32,59.88023952,,,,,,,,1537.5085,1537.6428,1537.6429,1539.6363,block4,j,1,0.6614,,1,33,73,7,1,1,top_right,neutral,threatening,,,,,,,,,,,,,,,,
,,,,,275870,f,y,r,n,12,0,2025-04-04_19h40.13.729,VisualSearchFaces,2024.2.4,Win32,59.88023952,,,,,,,,1540.6403,1540.7533,1540.7534,1542.7527,block4,f,1,1.3844,,1,34,74,22,1,0,top_right,neutral,no_target,,,,,,,,,,,,,,,,
,,,,,275870,f,y,r,n,12,0,2025-04-04_19h40.13.729,VisualSearchFaces,2024.2.4,Win32,59.88023952,,,,,,,,1543.7569,1543.873,1543.873,1545.8691,block4,f,1,1.316,,1,35,75,38,1,0,bottom_left,threatening,no_target,,,,,,,,,,,,,,,,
,,,,,275870,f,y,r,n,12,0,2025-04-04_19h40.13.729,VisualSearchFaces,2024.2.4,Win32,59.88023952,,,,,,,,1546.8733,1546.9857,1546.9857,1548.9854,block4,j,1,0.9504,,1,36,76,4,1,1,bottom_right,neutral,friendly,,,,,,,,,,,,,,,,
,,,,,275870,f,y,r,n,12,0,2025-04-04_19h40.13.729,VisualSearchFaces,2024.2.4,Win32,59.88023952,,,,,,,,1549.9897,1550.1048,1550.1049,1552.1014,block4,j,0,0.1813,,1,37,77,32,1,0,top_right,friendly,no_target,,,,,,,,,,,,,,,,
,,,,,275870,f,y,r,n,12,0,2025-04-04_19h40.13.729,VisualSearchFaces,2024.2.4,Win32,59.88023952,,,,,,,,1553.1062,1553.2189,1553.2189,1555.2179,block4,f,1,0.7165,,1,38,78,37,1,0,top_right,threatening,no_target,,,,,,,,,,,,,,,,
,,,,,275870,f,y,r,n,12,0,2025-04-04_19h40.13.729,VisualSearchFaces,2024.2.4,Win32,59.88023952,,,,,,,,1556.2229,1556.3278,1556.3279,1558.3178,block4,f,1,0.7926,,1,39,79,21,1,0,top_left,neutral,no_target,,,,,,,,,,,,,,,,
,,,,,275870,f,y,r,n,12,0,2025-04-04_19h40.13.729,VisualSearchFaces,2024.2.4,Win32,59.88023952,,,,,,,,,,,,,,,,,,,,,,,,,,1558.3221,1568.816,space,10.4662,,1568.8298,1608.3654,"sad, angry and neutral faces",1,[1608.3635],[1608.3635],,,,,
,,,,,275870,f,y,r,n,12,0,2025-04-04_19h40.13.729,VisualSearchFaces,2024.2.4,Win32,59.88023952,,,,,,,,,,,,,,,,,,,,,,,,,,,,,,,,,,,,,1608.3705,1610.3456,space,1.9222,
