Welcome.started,Welcome.stopped,keyboard_space_welcome.keys,keyboard_space_welcome.rt,keyboard_space_welcome.duration,participant,gender,(corrected) normal vision,handedness,exp vse,session,skip_intro,date,expName,psychopyVersion,OS,frameRate,stimulus_exposure.started,stimulus_exposure.stopped,Block_intro.started,Block_intro.stopped,keyboard_space.keys,keyboard_space.rt,keyboard_space.duration,Stimulus.started,Stimulus.stopped,fixation_ending.started,fixation_ending.stopped,block_id,keyboard_response.keys,keyboard_response.corr,keyboard_response.rt,keyboard_response.duration,trials.thisRepN,trials.thisTrialN,trials.thisN,trials.thisIndex,trials.ran,target_presence,target_position,background_emotion,target_emotion,Block_outro.started,Block_outro.stopped,keyboard_space_end.keys,keyboard_space_end.rt,keyboard_space_end.duration,Question_about_stimulus.started,Question_about_stimulus.stopped,textbox_response.text,button.numClicks,button.timesOn,button.timesOff,Thanks.started,Thanks.stopped,keyboard_space_goodbye.keys,keyboard_space_goodbye.rt,keyboard_space_goodbye.duration
0.0003,130.6576,space,130.5988,,309681,M,y,r,n,11,0,2025-04-05_21h29.16.585,VisualSearchFaces,2024.2.4,Win32,60.24096386,,,,,,,,,,,,,,,,,,,,,,,,,,,,,,,,,,,,,,,,,
,,,,,309681,M,y,r,n,11,0,2025-04-05_21h29.16.585,VisualSearchFaces,2024.2.4,Win32,60.24096386,151.8926,154.8975,154.9121,214.0054,space,59.016,,215.0031,215.2892,215.2898,217.2927,practice1,j,1,1.7652,,0,0,0,7,1,1,top_right,neutral,threatening,,,,,,,,,,,,,,,,
,,,,,309681,M,y,r,n,11,0,2025-04-05_21h29.16.585,VisualSearchFaces,2024.2.4,Win32,60.24096386,,,,,,,,218.2844,218.5645,218.5645,220.5542,practice1,f,1,1.4585,,0,1,1,23,1,0,bottom_left,neutral,no_target,,,,,,,,,,,,,,,,
,,,,,309681,M,y,r,n,11,0,2025-04-05_21h29.16.585,VisualSearchFaces,2024.2.4,Win32,60.24096386,,,,,,,,221.5489,221.8201,221.8203,223.8006,practice1,,0,,,0,2,2,33,1,0,bottom_left,friendly,no_target,,,,,,,,,,,,,,,,
,,,,,309681,M,y,r,n,11,0,2025-04-05_21h29.16.585,VisualSearchFaces,2024.2.4,Win32,60.24096386,,,,,,,,224.7969,225.0754,225.0757,227.0742,practice1,j,1,0.449,,0,3,3,2,1,1,top_right,neutral,friendly,,,,,,,,,,,,,,,,
,,,,,309681,M,y,r,n,11,0,2025-04-05_21h29.16.585,VisualSearchFaces,2024.2.4,Win32,60.24096386,,,,,,,,228.0751,228.3642,228.3646,230.3411,practice1,j,1,0.9454,,0,4,4,14,1,1,bottom_right,friendly,neutral,,,,,,,,,,,,,,,,
,,,,,309681,M,y,r,n,11,0,2025-04-05_21h29.16.585,VisualSearchFaces,2024.2.4,Win32,60.24096386,,,,,,,,231.3405,231.6104,231.6106,233.5772,practice1,f,1,0.6539,,0,5,5,26,1,0,top_left,neutral,no_target,,,,,,,,,,,,,,,,
,,,,,309681,M,y,r,n,11,0,2025-04-05_21h29.16.585,VisualSearchFaces,2024.2.4,Win32,60.24096386,,,,,,,,234.6029,234.8893,234.8895,236.8879,practice1,j,1,1.0206,,0,6,6,10,1,1,centre,friendly,neutral,,,,,,,,,,,,,,,,
,,,,,309681,M,y,r,n,11,0,2025-04-05_21h29.16.585,VisualSearchFaces,2024.2.4,Win32,60.24096386,,,,,,,,237.8981,238.1749,238.1752,240.1587,practice1,j,1,1.0566,,0,7,7,15,1,1,centre,threatening,neutral,,,,,,,,,,,,,,,,
,,,,,309681,M,y,r,n,11,0,2025-04-05_21h29.16.585,VisualSearchFaces,2024.2.4,Win32,60.24096386,,,,,,,,241.1819,241.4508,241.451,243.4417,practice1,f,0,0.5102,,0,8,8,16,1,1,top_left,threatening,neutral,,,,,,,,,,,,,,,,
,,,,,309681,M,y,r,n,11,0,2025-04-05_21h29.16.585,VisualSearchFaces,2024.2.4,Win32,60.24096386,,,,,,,,244.4515,244.7307,244.7309,246.7147,practice1,j,1,0.9359,,0,9,9,11,1,1,top_left,friendly,neutral,,,,,,,,,,,,,,,,
,,,,,309681,M,y,r,n,11,0,2025-04-05_21h29.16.585,VisualSearchFaces,2024.2.4,Win32,60.24096386,,,,,,,,247.7118,247.9867,247.9869,249.9915,practice1,j,1,0.4281,,0,10,10,1,1,1,top_left,neutral,friendly,,,,,,,,,,,,,,,,
,,,,,309681,M,y,r,n,11,0,2025-04-05_21h29.16.585,VisualSearchFaces,2024.2.4,Win32,60.24096386,,,,,,,,250.9873,251.2751,251.2753,253.2429,practice1,f,0,1.4927,,0,11,11,13,1,1,bottom_left,friendly,neutral,,,,,,,,,,,,,,,,
,,,,,309681,M,y,r,n,11,0,2025-04-05_21h29.16.585,VisualSearchFaces,2024.2.4,Win32,60.24096386,,,,,,,,254.2681,254.5433,254.5435,256.5116,practice1,j,1,0.484,,0,12,12,19,1,1,bottom_right,threatening,neutral,,,,,,,,,,,,,,,,
,,,,,309681,M,y,r,n,11,0,2025-04-05_21h29.16.585,VisualSearchFaces,2024.2.4,Win32,60.24096386,,,,,,,,257.5434,257.8174,257.8175,259.8098,practice1,f,1,1.172,,0,13,13,24,1,0,bottom_right,neutral,no_target,,,,,,,,,,,,,,,,
,,,,,309681,M,y,r,n,11,0,2025-04-05_21h29.16.585,VisualSearchFaces,2024.2.4,Win32,60.24096386,,,,,,,,260.7974,261.0489,261.0489,263.0319,practice1,f,1,0.9005,,0,14,14,34,1,0,bottom_right,friendly,no_target,,,,,,,,,,,,,,,,
,,,,,309681,M,y,r,n,11,0,2025-04-05_21h29.16.585,VisualSearchFaces,2024.2.4,Win32,60.24096386,,,,,,,,264.0341,264.2897,264.2899,266.2889,practice1,j,1,0.9454,,0,15,15,4,1,1,bottom_right,neutral,friendly,,,,,,,,,,,,,,,,
,,,,,309681,M,y,r,n,11,0,2025-04-05_21h29.16.585,VisualSearchFaces,2024.2.4,Win32,60.24096386,,,,,,,,267.2653,267.5406,267.5408,269.5381,practice1,j,1,0.672,,0,16,16,3,1,1,bottom_left,neutral,friendly,,,,,,,,,,,,,,,,
,,,,,309681,M,y,r,n,11,0,2025-04-05_21h29.16.585,VisualSearchFaces,2024.2.4,Win32,60.24096386,,,,,,,,270.5442,270.7993,270.7994,272.7779,practice1,j,1,0.4666,,0,17,17,9,1,1,bottom_right,neutral,threatening,,,,,,,,,,,,,,,,
,,,,,309681,M,y,r,n,11,0,2025-04-05_21h29.16.585,VisualSearchFaces,2024.2.4,Win32,60.24096386,,,,,,,,273.7824,274.066,274.0662,276.0507,practice1,f,1,0.562,,0,18,18,39,1,0,bottom_right,threatening,no_target,,,,,,,,,,,,,,,,
,,,,,309681,M,y,r,n,11,0,2025-04-05_21h29.16.585,VisualSearchFaces,2024.2.4,Win32,60.24096386,,,,,,,,277.0685,277.334,277.3342,279.3259,practice1,f,1,0.7853,,0,19,19,29,1,0,bottom_right,neutral,no_target,,,,,,,,,,,,,,,,
,,,,,309681,M,y,r,n,11,0,2025-04-05_21h29.16.585,VisualSearchFaces,2024.2.4,Win32,60.24096386,,,,,,,,280.3031,280.5824,280.5825,282.5681,practice1,f,1,0.4649,,0,20,20,27,1,0,top_right,neutral,no_target,,,,,,,,,,,,,,,,
,,,,,309681,M,y,r,n,11,0,2025-04-05_21h29.16.585,VisualSearchFaces,2024.2.4,Win32,60.24096386,,,,,,,,283.5992,283.867,283.8672,285.8799,practice1,f,1,0.4909,,0,21,21,22,1,0,top_right,neutral,no_target,,,,,,,,,,,,,,,,
,,,,,309681,M,y,r,n,11,0,2025-04-05_21h29.16.585,VisualSearchFaces,2024.2.4,Win32,60.24096386,,,,,,,,286.8715,287.1531,287.1533,289.1229,practice1,f,1,0.5249,,0,22,22,30,1,0,centre,friendly,no_target,,,,,,,,,,,,,,,,
,,,,,309681,M,y,r,n,11,0,2025-04-05_21h29.16.585,VisualSearchFaces,2024.2.4,Win32,60.24096386,,,,,,,,290.1443,290.4149,290.415,292.4059,practice1,j,1,0.82,,0,23,23,12,1,1,top_right,friendly,neutral,,,,,,,,,,,,,,,,
,,,,,309681,M,y,r,n,11,0,2025-04-05_21h29.16.585,VisualSearchFaces,2024.2.4,Win32,60.24096386,,,,,,,,293.4292,293.7065,293.7067,295.6883,practice1,j,1,1.4983,,0,24,24,8,1,1,bottom_left,neutral,threatening,,,,,,,,,,,,,,,,
,,,,,309681,M,y,r,n,11,0,2025-04-05_21h29.16.585,VisualSearchFaces,2024.2.4,Win32,60.24096386,,,,,,,,296.7261,297.0048,297.005,298.977,practice1,f,1,0.8851,,0,25,25,36,1,0,top_left,threatening,no_target,,,,,,,,,,,,,,,,
,,,,,309681,M,y,r,n,11,0,2025-04-05_21h29.16.585,VisualSearchFaces,2024.2.4,Win32,60.24096386,,,,,,,,299.9797,300.2486,300.2488,302.2405,practice1,f,1,0.5904,,0,26,26,20,1,0,centre,neutral,no_target,,,,,,,,,,,,,,,,
,,,,,309681,M,y,r,n,11,0,2025-04-05_21h29.16.585,VisualSearchFaces,2024.2.4,Win32,60.24096386,,,,,,,,303.25,303.5248,303.525,305.5215,practice1,f,1,0.6187,,0,27,27,25,1,0,centre,neutral,no_target,,,,,,,,,,,,,,,,
,,,,,309681,M,y,r,n,11,0,2025-04-05_21h29.16.585,VisualSearchFaces,2024.2.4,Win32,60.24096386,,,,,,,,306.5243,306.7938,306.7939,308.8035,practice1,f,1,0.8952,,0,28,28,21,1,0,top_left,neutral,no_target,,,,,,,,,,,,,,,,
,,,,,309681,M,y,r,n,11,0,2025-04-05_21h29.16.585,VisualSearchFaces,2024.2.4,Win32,60.24096386,,,,,,,,309.816,310.0911,310.0912,312.0716,practice1,f,1,0.6591,,0,29,29,35,1,0,centre,threatening,no_target,,,,,,,,,,,,,,,,
,,,,,309681,M,y,r,n,11,0,2025-04-05_21h29.16.585,VisualSearchFaces,2024.2.4,Win32,60.24096386,,,,,,,,313.0985,313.3818,313.382,315.3788,practice1,j,1,0.752,,0,30,30,17,1,1,top_right,threatening,neutral,,,,,,,,,,,,,,,,
,,,,,309681,M,y,r,n,11,0,2025-04-05_21h29.16.585,VisualSearchFaces,2024.2.4,Win32,60.24096386,,,,,,,,316.371,316.639,316.6392,318.6215,practice1,j,1,1.3093,,0,31,31,5,1,1,centre,neutral,threatening,,,,,,,,,,,,,,,,
,,,,,309681,M,y,r,n,11,0,2025-04-05_21h29.16.585,VisualSearchFaces,2024.2.4,Win32,60.24096386,,,,,,,,319.6463,319.9038,319.9039,321.8711,practice1,f,0,1.8311,,0,32,32,0,1,1,centre,neutral,friendly,,,,,,,,,,,,,,,,
,,,,,309681,M,y,r,n,11,0,2025-04-05_21h29.16.585,VisualSearchFaces,2024.2.4,Win32,60.24096386,,,,,,,,322.8833,323.1592,323.1594,325.1549,practice1,j,1,0.7494,,0,33,33,6,1,1,top_left,neutral,threatening,,,,,,,,,,,,,,,,
,,,,,309681,M,y,r,n,11,0,2025-04-05_21h29.16.585,VisualSearchFaces,2024.2.4,Win32,60.24096386,,,,,,,,326.153,326.4098,326.41,328.4163,practice1,j,1,0.6785,,0,34,34,18,1,1,bottom_left,threatening,neutral,,,,,,,,,,,,,,,,
,,,,,309681,M,y,r,n,11,0,2025-04-05_21h29.16.585,VisualSearchFaces,2024.2.4,Win32,60.24096386,,,,,,,,329.371,329.6436,329.6439,331.6257,practice1,f,1,1.0557,,0,35,35,38,1,0,bottom_left,threatening,no_target,,,,,,,,,,,,,,,,
,,,,,309681,M,y,r,n,11,0,2025-04-05_21h29.16.585,VisualSearchFaces,2024.2.4,Win32,60.24096386,,,,,,,,332.637,332.907,332.9072,334.9112,practice1,f,1,0.6739,,0,36,36,37,1,0,top_right,threatening,no_target,,,,,,,,,,,,,,,,
,,,,,309681,M,y,r,n,11,0,2025-04-05_21h29.16.585,VisualSearchFaces,2024.2.4,Win32,60.24096386,,,,,,,,335.9061,336.2014,336.2016,338.1799,practice1,f,1,0.8962,,0,37,37,28,1,0,bottom_left,neutral,no_target,,,,,,,,,,,,,,,,
,,,,,309681,M,y,r,n,11,0,2025-04-05_21h29.16.585,VisualSearchFaces,2024.2.4,Win32,60.24096386,,,,,,,,339.2057,339.4681,339.4683,341.4465,practice1,f,1,0.9176,,0,38,38,32,1,0,top_right,friendly,no_target,,,,,,,,,,,,,,,,
,,,,,309681,M,y,r,n,11,0,2025-04-05_21h29.16.585,VisualSearchFaces,2024.2.4,Win32,60.24096386,,,,,,,,342.4867,342.7485,342.7488,344.7342,practice1,f,1,0.6173,,0,39,39,31,1,0,top_left,friendly,no_target,,,,,,,,,,,,,,,,
,,,,,309681,M,y,r,n,11,0,2025-04-05_21h29.16.585,VisualSearchFaces,2024.2.4,Win32,60.24096386,,,373.8176,403.0291,space,29.1391,,404.053,404.1831,404.1832,406.1621,practice2,f,1,0.6999,,0,0,0,26,1,0,top_left,neutral,no_target,344.7356,373.8111,space,29.0118,,,,,,,,,,,,
,,,,,309681,M,y,r,n,11,0,2025-04-05_21h29.16.585,VisualSearchFaces,2024.2.4,Win32,60.24096386,,,,,,,,407.1795,407.2792,407.2793,409.2914,practice2,j,1,0.6695,,0,1,1,9,1,1,bottom_right,neutral,threatening,,,,,,,,,,,,,,,,
,,,,,309681,M,y,r,n,11,0,2025-04-05_21h29.16.585,VisualSearchFaces,2024.2.4,Win32,60.24096386,,,,,,,,410.2683,410.3897,410.3898,412.3921,practice2,j,1,1.1663,,0,2,2,10,1,1,centre,friendly,neutral,,,,,,,,,,,,,,,,
,,,,,309681,M,y,r,n,11,0,2025-04-05_21h29.16.585,VisualSearchFaces,2024.2.4,Win32,60.24096386,,,,,,,,413.3888,413.4898,413.4898,415.5084,practice2,f,1,0.6002,,0,3,3,25,1,0,centre,neutral,no_target,,,,,,,,,,,,,,,,
,,,,,309681,M,y,r,n,11,0,2025-04-05_21h29.16.585,VisualSearchFaces,2024.2.4,Win32,60.24096386,,,,,,,,416.4813,416.5893,416.5894,418.5916,practice2,f,1,0.8248,,0,4,4,38,1,0,bottom_left,threatening,no_target,,,,,,,,,,,,,,,,
,,,,,309681,M,y,r,n,11,0,2025-04-05_21h29.16.585,VisualSearchFaces,2024.2.4,Win32,60.24096386,,,,,,,,419.5591,419.6605,419.6606,421.6611,practice2,j,1,1.1323,,0,5,5,8,1,1,bottom_left,neutral,threatening,,,,,,,,,,,,,,,,
,,,,,309681,M,y,r,n,11,0,2025-04-05_21h29.16.585,VisualSearchFaces,2024.2.4,Win32,60.24096386,,,,,,,,422.6469,422.746,422.746,424.7159,practice2,f,1,1.6281,,0,6,6,30,1,0,centre,friendly,no_target,,,,,,,,,,,,,,,,
,,,,,309681,M,y,r,n,11,0,2025-04-05_21h29.16.585,VisualSearchFaces,2024.2.4,Win32,60.24096386,,,,,,,,425.7316,425.867,425.8671,427.8604,practice2,j,1,1.8831,,0,7,7,14,1,1,bottom_right,friendly,neutral,,,,,,,,,,,,,,,,
,,,,,309681,M,y,r,n,11,0,2025-04-05_21h29.16.585,VisualSearchFaces,2024.2.4,Win32,60.24096386,,,,,,,,428.8423,428.9484,428.9484,430.9231,practice2,j,1,0.784,,0,8,8,4,1,1,bottom_right,neutral,friendly,,,,,,,,,,,,,,,,
,,,,,309681,M,y,r,n,11,0,2025-04-05_21h29.16.585,VisualSearchFaces,2024.2.4,Win32,60.24096386,,,,,,,,431.9532,432.0551,432.0552,434.0304,practice2,f,1,0.7943,,0,9,9,20,1,0,centre,neutral,no_target,,,,,,,,,,,,,,,,
,,,,,309681,M,y,r,n,11,0,2025-04-05_21h29.16.585,VisualSearchFaces,2024.2.4,Win32,60.24096386,,,,,,,,435.0503,435.1842,435.1844,437.1498,practice2,j,1,0.9584,,0,10,10,2,1,1,top_right,neutral,friendly,,,,,,,,,,,,,,,,
,,,,,309681,M,y,r,n,11,0,2025-04-05_21h29.16.585,VisualSearchFaces,2024.2.4,Win32,60.24096386,,,,,,,,438.1696,438.2692,438.2692,440.2576,practice2,f,0,1.859,,0,11,11,12,1,1,top_right,friendly,neutral,,,,,,,,,,,,,,,,
,,,,,309681,M,y,r,n,11,0,2025-04-05_21h29.16.585,VisualSearchFaces,2024.2.4,Win32,60.24096386,,,,,,,,441.2447,441.3812,441.3814,443.3487,practice2,f,1,0.9331,,0,12,12,33,1,0,bottom_left,friendly,no_target,,,,,,,,,,,,,,,,
,,,,,309681,M,y,r,n,11,0,2025-04-05_21h29.16.585,VisualSearchFaces,2024.2.4,Win32,60.24096386,,,,,,,,444.3734,444.483,444.4831,446.4498,practice2,j,1,0.6734,,0,13,13,5,1,1,centre,neutral,threatening,,,,,,,,,,,,,,,,
,,,,,309681,M,y,r,n,11,0,2025-04-05_21h29.16.585,VisualSearchFaces,2024.2.4,Win32,60.24096386,,,,,,,,447.4627,447.597,447.5971,449.6009,practice2,j,0,0.6618,,0,14,14,23,1,0,bottom_left,neutral,no_target,,,,,,,,,,,,,,,,
,,,,,309681,M,y,r,n,11,0,2025-04-05_21h29.16.585,VisualSearchFaces,2024.2.4,Win32,60.24096386,,,,,,,,450.5771,450.6852,450.6853,452.7043,practice2,j,1,0.7828,,0,15,15,15,1,1,centre,threatening,neutral,,,,,,,,,,,,,,,,
,,,,,309681,M,y,r,n,11,0,2025-04-05_21h29.16.585,VisualSearchFaces,2024.2.4,Win32,60.24096386,,,,,,,,453.6771,453.7719,453.7719,455.7582,practice2,j,1,0.9546,,0,16,16,11,1,1,top_left,friendly,neutral,,,,,,,,,,,,,,,,
,,,,,309681,M,y,r,n,11,0,2025-04-05_21h29.16.585,VisualSearchFaces,2024.2.4,Win32,60.24096386,,,,,,,,456.7415,456.8417,456.8418,458.8227,practice2,f,1,1.2271,,0,17,17,36,1,0,top_left,threatening,no_target,,,,,,,,,,,,,,,,
,,,,,309681,M,y,r,n,11,0,2025-04-05_21h29.16.585,VisualSearchFaces,2024.2.4,Win32,60.24096386,,,,,,,,459.8132,459.9109,459.9109,461.9271,practice2,j,1,1.5095,,0,18,18,17,1,1,top_right,threatening,neutral,,,,,,,,,,,,,,,,
,,,,,309681,M,y,r,n,11,0,2025-04-05_21h29.16.585,VisualSearchFaces,2024.2.4,Win32,60.24096386,,,,,,,,462.9111,463.0485,463.0486,465.0453,practice2,j,1,1.3367,,0,19,19,19,1,1,bottom_right,threatening,neutral,,,,,,,,,,,,,,,,
,,,,,309681,M,y,r,n,11,0,2025-04-05_21h29.16.585,VisualSearchFaces,2024.2.4,Win32,60.24096386,,,,,,,,466.0655,466.1979,466.1979,468.2062,practice2,f,1,1.5178,,0,20,20,31,1,0,top_left,friendly,no_target,,,,,,,,,,,,,,,,
,,,,,309681,M,y,r,n,11,0,2025-04-05_21h29.16.585,VisualSearchFaces,2024.2.4,Win32,60.24096386,,,,,,,,469.1919,469.3276,469.3278,471.3433,practice2,f,1,0.8865,,0,21,21,32,1,0,top_right,friendly,no_target,,,,,,,,,,,,,,,,
,,,,,309681,M,y,r,n,11,0,2025-04-05_21h29.16.585,VisualSearchFaces,2024.2.4,Win32,60.24096386,,,,,,,,472.3496,472.4537,472.4537,474.4624,practice2,f,1,0.9992,,0,22,22,22,1,0,top_right,neutral,no_target,,,,,,,,,,,,,,,,
,,,,,309681,M,y,r,n,11,0,2025-04-05_21h29.16.585,VisualSearchFaces,2024.2.4,Win32,60.24096386,,,,,,,,475.4519,475.5515,475.5515,477.5399,practice2,f,1,1.2989,,0,23,23,35,1,0,centre,threatening,no_target,,,,,,,,,,,,,,,,
,,,,,309681,M,y,r,n,11,0,2025-04-05_21h29.16.585,VisualSearchFaces,2024.2.4,Win32,60.24096386,,,,,,,,478.5343,478.6432,478.6432,480.64,practice2,j,1,0.8678,,0,24,24,1,1,1,top_left,neutral,friendly,,,,,,,,,,,,,,,,
,,,,,309681,M,y,r,n,11,0,2025-04-05_21h29.16.585,VisualSearchFaces,2024.2.4,Win32,60.24096386,,,,,,,,481.6187,481.7167,481.7168,483.7176,practice2,f,1,0.9381,,0,25,25,21,1,0,top_left,neutral,no_target,,,,,,,,,,,,,,,,
,,,,,309681,M,y,r,n,11,0,2025-04-05_21h29.16.585,VisualSearchFaces,2024.2.4,Win32,60.24096386,,,,,,,,484.6979,484.8378,484.8379,486.81,practice2,j,1,0.618,,0,26,26,3,1,1,bottom_left,neutral,friendly,,,,,,,,,,,,,,,,
,,,,,309681,M,y,r,n,11,0,2025-04-05_21h29.16.585,VisualSearchFaces,2024.2.4,Win32,60.24096386,,,,,,,,487.8594,487.9616,487.9616,489.9424,practice2,f,1,1.4082,,0,27,27,34,1,0,bottom_right,friendly,no_target,,,,,,,,,,,,,,,,
,,,,,309681,M,y,r,n,11,0,2025-04-05_21h29.16.585,VisualSearchFaces,2024.2.4,Win32,60.24096386,,,,,,,,490.9476,491.0854,491.0855,493.0623,practice2,j,1,0.8562,,0,28,28,13,1,1,bottom_left,friendly,neutral,,,,,,,,,,,,,,,,
,,,,,309681,M,y,r,n,11,0,2025-04-05_21h29.16.585,VisualSearchFaces,2024.2.4,Win32,60.24096386,,,,,,,,494.0886,494.1855,494.1855,496.1754,practice2,f,1,0.7331,,0,29,29,27,1,0,top_right,neutral,no_target,,,,,,,,,,,,,,,,
,,,,,309681,M,y,r,n,11,0,2025-04-05_21h29.16.585,VisualSearchFaces,2024.2.4,Win32,60.24096386,,,,,,,,497.1752,497.2973,497.2974,499.2649,practice2,f,1,0.7679,,0,30,30,39,1,0,bottom_right,threatening,no_target,,,,,,,,,,,,,,,,
,,,,,309681,M,y,r,n,11,0,2025-04-05_21h29.16.585,VisualSearchFaces,2024.2.4,Win32,60.24096386,,,,,,,,500.2691,500.38,500.3801,502.3582,practice2,f,1,0.9894,,0,31,31,28,1,0,bottom_left,neutral,no_target,,,,,,,,,,,,,,,,
,,,,,309681,M,y,r,n,11,0,2025-04-05_21h29.16.585,VisualSearchFaces,2024.2.4,Win32,60.24096386,,,,,,,,503.3534,503.4721,503.4722,505.4619,practice2,j,0,0.9232,,0,32,32,37,1,0,top_right,threatening,no_target,,,,,,,,,,,,,,,,
,,,,,309681,M,y,r,n,11,0,2025-04-05_21h29.16.585,VisualSearchFaces,2024.2.4,Win32,60.24096386,,,,,,,,506.4508,506.5525,506.5527,508.5382,practice2,j,1,1.5987,,0,33,33,18,1,1,bottom_left,threatening,neutral,,,,,,,,,,,,,,,,
,,,,,309681,M,y,r,n,11,0,2025-04-05_21h29.16.585,VisualSearchFaces,2024.2.4,Win32,60.24096386,,,,,,,,509.5438,509.6488,509.6488,511.6553,practice2,j,1,0.6366,,0,34,34,6,1,1,top_left,neutral,threatening,,,,,,,,,,,,,,,,
,,,,,309681,M,y,r,n,11,0,2025-04-05_21h29.16.585,VisualSearchFaces,2024.2.4,Win32,60.24096386,,,,,,,,512.6233,512.7285,512.7285,514.7386,practice2,j,1,0.5306,,0,35,35,0,1,1,centre,neutral,friendly,,,,,,,,,,,,,,,,
,,,,,309681,M,y,r,n,11,0,2025-04-05_21h29.16.585,VisualSearchFaces,2024.2.4,Win32,60.24096386,,,,,,,,515.7235,515.8462,515.8462,517.8457,practice2,j,1,0.7213,,0,36,36,16,1,1,top_left,threatening,neutral,,,,,,,,,,,,,,,,
,,,,,309681,M,y,r,n,11,0,2025-04-05_21h29.16.585,VisualSearchFaces,2024.2.4,Win32,60.24096386,,,,,,,,518.8333,518.9404,518.9404,520.9023,practice2,j,1,0.7218,,0,37,37,7,1,1,top_right,neutral,threatening,,,,,,,,,,,,,,,,
,,,,,309681,M,y,r,n,11,0,2025-04-05_21h29.16.585,VisualSearchFaces,2024.2.4,Win32,60.24096386,,,,,,,,521.9202,522.0557,522.0558,524.0395,practice2,f,1,0.5734,,0,38,38,29,1,0,bottom_right,neutral,no_target,,,,,,,,,,,,,,,,
,,,,,309681,M,y,r,n,11,0,2025-04-05_21h29.16.585,VisualSearchFaces,2024.2.4,Win32,60.24096386,,,,,,,,525.0447,525.1793,525.1794,527.1596,practice2,f,1,0.4165,,0,39,39,24,1,0,bottom_right,neutral,no_target,,,,,,,,,,,,,,,,
,,,,,309681,M,y,r,n,11,0,2025-04-05_21h29.16.585,VisualSearchFaces,2024.2.4,Win32,60.24096386,,,625.2728,630.2429,space,4.9049,,631.2324,631.37,631.3702,633.3653,block1,f,1,1.4365,,0,0,0,34,1,0,bottom_right,friendly,no_target,527.1641,625.2637,space,98.0453,,,,,,,,,,,,
,,,,,309681,M,y,r,n,11,0,2025-04-05_21h29.16.585,VisualSearchFaces,2024.2.4,Win32,60.24096386,,,,,,,,634.3719,634.5099,634.51,636.5174,block1,j,1,0.805,,0,1,1,12,1,1,top_right,friendly,neutral,,,,,,,,,,,,,,,,
,,,,,309681,M,y,r,n,11,0,2025-04-05_21h29.16.585,VisualSearchFaces,2024.2.4,Win32,60.24096386,,,,,,,,637.4834,637.5813,637.5814,639.5999,block1,j,1,0.7545,,0,2,2,11,1,1,top_left,friendly,neutral,,,,,,,,,,,,,,,,
,,,,,309681,M,y,r,n,11,0,2025-04-05_21h29.16.585,VisualSearchFaces,2024.2.4,Win32,60.24096386,,,,,,,,640.5642,640.6707,640.6708,642.648,block1,f,1,0.618,,0,3,3,28,1,0,bottom_left,neutral,no_target,,,,,,,,,,,,,,,,
,,,,,309681,M,y,r,n,11,0,2025-04-05_21h29.16.585,VisualSearchFaces,2024.2.4,Win32,60.24096386,,,,,,,,643.6888,643.8143,643.8145,645.7975,block1,,0,,,0,4,4,31,1,0,top_left,friendly,no_target,,,,,,,,,,,,,,,,
,,,,,309681,M,y,r,n,11,0,2025-04-05_21h29.16.585,VisualSearchFaces,2024.2.4,Win32,60.24096386,,,,,,,,646.7836,646.8896,646.8896,648.8785,block1,f,1,0.8896,,0,5,5,25,1,0,centre,neutral,no_target,,,,,,,,,,,,,,,,
,,,,,309681,M,y,r,n,11,0,2025-04-05_21h29.16.585,VisualSearchFaces,2024.2.4,Win32,60.24096386,,,,,,,,649.8718,650.0068,650.0069,652.0168,block1,f,1,0.5041,,0,6,6,26,1,0,top_left,neutral,no_target,,,,,,,,,,,,,,,,
,,,,,309681,M,y,r,n,11,0,2025-04-05_21h29.16.585,VisualSearchFaces,2024.2.4,Win32,60.24096386,,,,,,,,652.9983,653.1216,653.1218,655.0891,block1,j,1,0.8164,,0,7,7,17,1,1,top_right,threatening,neutral,,,,,,,,,,,,,,,,
,,,,,309681,M,y,r,n,11,0,2025-04-05_21h29.16.585,VisualSearchFaces,2024.2.4,Win32,60.24096386,,,,,,,,656.11,656.2335,656.2336,658.2297,block1,j,1,0.6072,,0,8,8,8,1,1,bottom_left,neutral,threatening,,,,,,,,,,,,,,,,
,,,,,309681,M,y,r,n,11,0,2025-04-05_21h29.16.585,VisualSearchFaces,2024.2.4,Win32,60.24096386,,,,,,,,659.1889,659.3034,659.3036,661.3041,block1,f,1,0.6824,,0,9,9,37,1,0,top_right,threatening,no_target,,,,,,,,,,,,,,,,
,,,,,309681,M,y,r,n,11,0,2025-04-05_21h29.16.585,VisualSearchFaces,2024.2.4,Win32,60.24096386,,,,,,,,662.293,662.438,662.438,664.4427,block1,f,1,0.573,,0,10,10,39,1,0,bottom_right,threatening,no_target,,,,,,,,,,,,,,,,
,,,,,309681,M,y,r,n,11,0,2025-04-05_21h29.16.585,VisualSearchFaces,2024.2.4,Win32,60.24096386,,,,,,,,665.4214,665.5415,665.5416,667.5133,block1,f,1,0.7701,,0,11,11,27,1,0,top_right,neutral,no_target,,,,,,,,,,,,,,,,
,,,,,309681,M,y,r,n,11,0,2025-04-05_21h29.16.585,VisualSearchFaces,2024.2.4,Win32,60.24096386,,,,,,,,668.5383,668.689,668.689,670.658,block1,j,1,0.8475,,0,12,12,9,1,1,bottom_right,neutral,threatening,,,,,,,,,,,,,,,,
,,,,,309681,M,y,r,n,11,0,2025-04-05_21h29.16.585,VisualSearchFaces,2024.2.4,Win32,60.24096386,,,,,,,,671.669,671.8062,671.8063,673.8032,block1,f,1,0.7302,,0,13,13,21,1,0,top_left,neutral,no_target,,,,,,,,,,,,,,,,
,,,,,309681,M,y,r,n,11,0,2025-04-05_21h29.16.585,VisualSearchFaces,2024.2.4,Win32,60.24096386,,,,,,,,674.8047,674.9419,674.9421,676.9218,block1,j,1,0.577,,0,14,14,6,1,1,top_left,neutral,threatening,,,,,,,,,,,,,,,,
,,,,,309681,M,y,r,n,11,0,2025-04-05_21h29.16.585,VisualSearchFaces,2024.2.4,Win32,60.24096386,,,,,,,,677.9269,678.0546,678.0548,680.0511,block1,f,0,1.1748,,0,15,15,16,1,1,top_left,threatening,neutral,,,,,,,,,,,,,,,,
,,,,,309681,M,y,r,n,11,0,2025-04-05_21h29.16.585,VisualSearchFaces,2024.2.4,Win32,60.24096386,,,,,,,,681.0557,681.1893,681.1895,683.1995,block1,j,1,0.7541,,0,16,16,19,1,1,bottom_right,threatening,neutral,,,,,,,,,,,,,,,,
,,,,,309681,M,y,r,n,11,0,2025-04-05_21h29.16.585,VisualSearchFaces,2024.2.4,Win32,60.24096386,,,,,,,,684.1916,684.2968,684.297,686.2932,block1,f,1,0.9185,,0,17,17,38,1,0,bottom_left,threatening,no_target,,,,,,,,,,,,,,,,
,,,,,309681,M,y,r,n,11,0,2025-04-05_21h29.16.585,VisualSearchFaces,2024.2.4,Win32,60.24096386,,,,,,,,687.2726,687.3915,687.3916,689.3629,block1,f,0,1.2552,,0,18,18,1,1,1,top_left,neutral,friendly,,,,,,,,,,,,,,,,
,,,,,309681,M,y,r,n,11,0,2025-04-05_21h29.16.585,VisualSearchFaces,2024.2.4,Win32,60.24096386,,,,,,,,690.3665,690.4706,690.4706,692.4703,block1,f,0,0.8667,,0,19,19,15,1,1,centre,threatening,neutral,,,,,,,,,,,,,,,,
,,,,,309681,M,y,r,n,11,0,2025-04-05_21h29.16.585,VisualSearchFaces,2024.2.4,Win32,60.24096386,,,,,,,,693.4715,693.5693,693.5694,695.5472,block1,f,1,1.2583,,0,20,20,33,1,0,bottom_left,friendly,no_target,,,,,,,,,,,,,,,,
,,,,,309681,M,y,r,n,11,0,2025-04-05_21h29.16.585,VisualSearchFaces,2024.2.4,Win32,60.24096386,,,,,,,,696.5716,696.706,696.7062,698.7048,block1,f,1,0.6988,,0,21,21,32,1,0,top_right,friendly,no_target,,,,,,,,,,,,,,,,
,,,,,309681,M,y,r,n,11,0,2025-04-05_21h29.16.585,VisualSearchFaces,2024.2.4,Win32,60.24096386,,,,,,,,699.689,699.8208,699.8208,701.8316,block1,f,1,1.3445,,0,22,22,36,1,0,top_left,threatening,no_target,,,,,,,,,,,,,,,,
,,,,,309681,M,y,r,n,11,0,2025-04-05_21h29.16.585,VisualSearchFaces,2024.2.4,Win32,60.24096386,,,,,,,,702.8299,702.9347,702.9347,704.92,block1,j,1,0.6071,,0,23,23,2,1,1,top_right,neutral,friendly,,,,,,,,,,,,,,,,
,,,,,309681,M,y,r,n,11,0,2025-04-05_21h29.16.585,VisualSearchFaces,2024.2.4,Win32,60.24096386,,,,,,,,705.9328,706.03,706.0301,708.0485,block1,j,1,0.5315,,0,24,24,7,1,1,top_right,neutral,threatening,,,,,,,,,,,,,,,,
,,,,,309681,M,y,r,n,11,0,2025-04-05_21h29.16.585,VisualSearchFaces,2024.2.4,Win32,60.24096386,,,,,,,,709.0054,709.1542,709.1543,711.1566,block1,f,1,1.4861,,0,25,25,29,1,0,bottom_right,neutral,no_target,,,,,,,,,,,,,,,,
,,,,,309681,M,y,r,n,11,0,2025-04-05_21h29.16.585,VisualSearchFaces,2024.2.4,Win32,60.24096386,,,,,,,,712.1284,712.2574,712.2579,714.2872,block1,f,0,1.0287,,0,26,26,10,1,1,centre,friendly,neutral,,,,,,,,,,,,,,,,
,,,,,309681,M,y,r,n,11,0,2025-04-05_21h29.16.585,VisualSearchFaces,2024.2.4,Win32,60.24096386,,,,,,,,715.2497,715.3742,715.3745,717.3867,block1,f,1,1.0894,,0,27,27,24,1,0,bottom_right,neutral,no_target,,,,,,,,,,,,,,,,
,,,,,309681,M,y,r,n,11,0,2025-04-05_21h29.16.585,VisualSearchFaces,2024.2.4,Win32,60.24096386,,,,,,,,718.3705,718.502,718.502,720.5087,block1,f,1,1.2412,,0,28,28,30,1,0,centre,friendly,no_target,,,,,,,,,,,,,,,,
,,,,,309681,M,y,r,n,11,0,2025-04-05_21h29.16.585,VisualSearchFaces,2024.2.4,Win32,60.24096386,,,,,,,,721.4869,721.6202,721.6204,723.6154,block1,j,1,0.5727,,0,29,29,18,1,1,bottom_left,threatening,neutral,,,,,,,,,,,,,,,,
,,,,,309681,M,y,r,n,11,0,2025-04-05_21h29.16.585,VisualSearchFaces,2024.2.4,Win32,60.24096386,,,,,,,,724.5996,724.7278,724.7279,726.7304,block1,j,1,0.6734,,0,30,30,14,1,1,bottom_right,friendly,neutral,,,,,,,,,,,,,,,,
,,,,,309681,M,y,r,n,11,0,2025-04-05_21h29.16.585,VisualSearchFaces,2024.2.4,Win32,60.24096386,,,,,,,,727.7229,727.8471,727.8473,729.8201,block1,j,1,0.6123,,0,31,31,3,1,1,bottom_left,neutral,friendly,,,,,,,,,,,,,,,,
,,,,,309681,M,y,r,n,11,0,2025-04-05_21h29.16.585,VisualSearchFaces,2024.2.4,Win32,60.24096386,,,,,,,,730.8296,730.9677,730.9678,732.9438,block1,f,1,0.9635,,0,32,32,23,1,0,bottom_left,neutral,no_target,,,,,,,,,,,,,,,,
,,,,,309681,M,y,r,n,11,0,2025-04-05_21h29.16.585,VisualSearchFaces,2024.2.4,Win32,60.24096386,,,,,,,,733.9807,734.0859,734.086,736.0518,block1,f,1,0.982,,0,33,33,35,1,0,centre,threatening,no_target,,,,,,,,,,,,,,,,
,,,,,309681,M,y,r,n,11,0,2025-04-05_21h29.16.585,VisualSearchFaces,2024.2.4,Win32,60.24096386,,,,,,,,737.0723,737.2044,737.2046,739.1725,block1,j,1,0.9026,,0,34,34,13,1,1,bottom_left,friendly,neutral,,,,,,,,,,,,,,,,
,,,,,309681,M,y,r,n,11,0,2025-04-05_21h29.16.585,VisualSearchFaces,2024.2.4,Win32,60.24096386,,,,,,,,740.2294,740.3651,740.3652,742.353,block1,j,1,0.9022,,0,35,35,5,1,1,centre,neutral,threatening,,,,,,,,,,,,,,,,
,,,,,309681,M,y,r,n,11,0,2025-04-05_21h29.16.585,VisualSearchFaces,2024.2.4,Win32,60.24096386,,,,,,,,743.3749,743.4758,743.4758,745.4771,block1,f,1,0.9222,,0,36,36,22,1,0,top_right,neutral,no_target,,,,,,,,,,,,,,,,
,,,,,309681,M,y,r,n,11,0,2025-04-05_21h29.16.585,VisualSearchFaces,2024.2.4,Win32,60.24096386,,,,,,,,746.477,746.5744,746.5745,748.5379,block1,f,1,0.888,,0,37,37,20,1,0,centre,neutral,no_target,,,,,,,,,,,,,,,,
,,,,,309681,M,y,r,n,11,0,2025-04-05_21h29.16.585,VisualSearchFaces,2024.2.4,Win32,60.24096386,,,,,,,,749.5464,749.6429,749.643,751.642,block1,j,1,0.5041,,0,38,38,0,1,1,centre,neutral,friendly,,,,,,,,,,,,,,,,
,,,,,309681,M,y,r,n,11,0,2025-04-05_21h29.16.585,VisualSearchFaces,2024.2.4,Win32,60.24096386,,,,,,,,752.6586,752.7594,752.7596,754.7628,block1,j,1,0.5732,,0,39,39,4,1,1,bottom_right,neutral,friendly,,,,,,,,,,,,,,,,
,,,,,309681,M,y,r,n,11,0,2025-04-05_21h29.16.585,VisualSearchFaces,2024.2.4,Win32,60.24096386,,,,,,,,755.7401,755.8449,755.8451,757.8165,block1,j,1,0.526,,1,0,40,9,1,1,bottom_right,neutral,threatening,,,,,,,,,,,,,,,,
,,,,,309681,M,y,r,n,11,0,2025-04-05_21h29.16.585,VisualSearchFaces,2024.2.4,Win32,60.24096386,,,,,,,,758.8395,758.9447,758.9448,760.9219,block1,j,0,1.4198,,1,1,41,32,1,0,top_right,friendly,no_target,,,,,,,,,,,,,,,,
,,,,,309681,M,y,r,n,11,0,2025-04-05_21h29.16.585,VisualSearchFaces,2024.2.4,Win32,60.24096386,,,,,,,,761.9452,762.0425,762.0425,764.0489,block1,f,0,0.8016,,1,2,42,10,1,1,centre,friendly,neutral,,,,,,,,,,,,,,,,
,,,,,309681,M,y,r,n,11,0,2025-04-05_21h29.16.585,VisualSearchFaces,2024.2.4,Win32,60.24096386,,,,,,,,765.0481,765.1644,765.1645,767.1395,block1,f,1,0.9361,,1,3,43,39,1,0,bottom_right,threatening,no_target,,,,,,,,,,,,,,,,
,,,,,309681,M,y,r,n,11,0,2025-04-05_21h29.16.585,VisualSearchFaces,2024.2.4,Win32,60.24096386,,,,,,,,768.1464,768.2486,768.2487,770.2286,block1,f,1,1.1083,,1,4,44,24,1,0,bottom_right,neutral,no_target,,,,,,,,,,,,,,,,
,,,,,309681,M,y,r,n,11,0,2025-04-05_21h29.16.585,VisualSearchFaces,2024.2.4,Win32,60.24096386,,,,,,,,771.2257,771.3264,771.3264,773.3381,block1,f,1,1.2744,,1,5,45,38,1,0,bottom_left,threatening,no_target,,,,,,,,,,,,,,,,
,,,,,309681,M,y,r,n,11,0,2025-04-05_21h29.16.585,VisualSearchFaces,2024.2.4,Win32,60.24096386,,,,,,,,774.3122,774.411,774.4111,776.3767,block1,j,1,0.7174,,1,6,46,15,1,1,centre,threatening,neutral,,,,,,,,,,,,,,,,
,,,,,309681,M,y,r,n,11,0,2025-04-05_21h29.16.585,VisualSearchFaces,2024.2.4,Win32,60.24096386,,,,,,,,777.4168,777.5225,777.5226,779.4934,block1,j,1,0.545,,1,7,47,6,1,1,top_left,neutral,threatening,,,,,,,,,,,,,,,,
,,,,,309681,M,y,r,n,11,0,2025-04-05_21h29.16.585,VisualSearchFaces,2024.2.4,Win32,60.24096386,,,,,,,,780.528,780.6329,780.633,782.6186,block1,j,1,0.5691,,1,8,48,7,1,1,top_right,neutral,threatening,,,,,,,,,,,,,,,,
,,,,,309681,M,y,r,n,11,0,2025-04-05_21h29.16.585,VisualSearchFaces,2024.2.4,Win32,60.24096386,,,,,,,,783.6208,783.724,783.7242,785.7194,block1,j,1,0.6351,,1,9,49,0,1,1,centre,neutral,friendly,,,,,,,,,,,,,,,,
,,,,,309681,M,y,r,n,11,0,2025-04-05_21h29.16.585,VisualSearchFaces,2024.2.4,Win32,60.24096386,,,,,,,,786.7156,786.851,786.8511,788.8445,block1,f,1,0.6132,,1,10,50,23,1,0,bottom_left,neutral,no_target,,,,,,,,,,,,,,,,
,,,,,309681,M,y,r,n,11,0,2025-04-05_21h29.16.585,VisualSearchFaces,2024.2.4,Win32,60.24096386,,,,,,,,789.8301,789.9731,789.9731,791.9587,block1,j,1,0.7749,,1,11,51,3,1,1,bottom_left,neutral,friendly,,,,,,,,,,,,,,,,
,,,,,309681,M,y,r,n,11,0,2025-04-05_21h29.16.585,VisualSearchFaces,2024.2.4,Win32,60.24096386,,,,,,,,792.9627,793.1154,793.1154,795.122,block1,f,1,0.8035,,1,12,52,22,1,0,top_right,neutral,no_target,,,,,,,,,,,,,,,,
,,,,,309681,M,y,r,n,11,0,2025-04-05_21h29.16.585,VisualSearchFaces,2024.2.4,Win32,60.24096386,,,,,,,,796.1056,796.2094,796.2096,798.222,block1,j,1,0.668,,1,13,53,2,1,1,top_right,neutral,friendly,,,,,,,,,,,,,,,,
,,,,,309681,M,y,r,n,11,0,2025-04-05_21h29.16.585,VisualSearchFaces,2024.2.4,Win32,60.24096386,,,,,,,,799.2234,799.3233,799.3235,801.2998,block1,f,1,0.8131,,1,14,54,21,1,0,top_left,neutral,no_target,,,,,,,,,,,,,,,,
,,,,,309681,M,y,r,n,11,0,2025-04-05_21h29.16.585,VisualSearchFaces,2024.2.4,Win32,60.24096386,,,,,,,,802.3134,802.451,802.451,804.4365,block1,j,1,0.9407,,1,15,55,11,1,1,top_left,friendly,neutral,,,,,,,,,,,,,,,,
,,,,,309681,M,y,r,n,11,0,2025-04-05_21h29.16.585,VisualSearchFaces,2024.2.4,Win32,60.24096386,,,,,,,,805.4605,805.5626,805.5627,807.5385,block1,f,1,0.864,,1,16,56,28,1,0,bottom_left,neutral,no_target,,,,,,,,,,,,,,,,
,,,,,309681,M,y,r,n,11,0,2025-04-05_21h29.16.585,VisualSearchFaces,2024.2.4,Win32,60.24096386,,,,,,,,808.5781,808.7189,808.719,810.7023,block1,f,1,0.9134,,1,17,57,37,1,0,top_right,threatening,no_target,,,,,,,,,,,,,,,,
,,,,,309681,M,y,r,n,11,0,2025-04-05_21h29.16.585,VisualSearchFaces,2024.2.4,Win32,60.24096386,,,,,,,,811.7233,811.823,811.8231,813.8101,block1,f,1,1.2044,,1,18,58,35,1,0,centre,threatening,no_target,,,,,,,,,,,,,,,,
,,,,,309681,M,y,r,n,11,0,2025-04-05_21h29.16.585,VisualSearchFaces,2024.2.4,Win32,60.24096386,,,,,,,,814.8087,814.9329,814.933,816.9255,block1,j,0,0.704,,1,19,59,29,1,0,bottom_right,neutral,no_target,,,,,,,,,,,,,,,,
,,,,,309681,M,y,r,n,11,0,2025-04-05_21h29.16.585,VisualSearchFaces,2024.2.4,Win32,60.24096386,,,,,,,,817.9276,818.0314,818.0314,820.033,block1,f,1,0.8055,,1,20,60,31,1,0,top_left,friendly,no_target,,,,,,,,,,,,,,,,
,,,,,309681,M,y,r,n,11,0,2025-04-05_21h29.16.585,VisualSearchFaces,2024.2.4,Win32,60.24096386,,,,,,,,821.0216,821.1304,821.1305,823.1248,block1,j,1,1.5151,,1,21,61,13,1,1,bottom_left,friendly,neutral,,,,,,,,,,,,,,,,
,,,,,309681,M,y,r,n,11,0,2025-04-05_21h29.16.585,VisualSearchFaces,2024.2.4,Win32,60.24096386,,,,,,,,824.1419,824.2442,824.2444,826.2211,block1,f,1,0.8005,,1,22,62,30,1,0,centre,friendly,no_target,,,,,,,,,,,,,,,,
,,,,,309681,M,y,r,n,11,0,2025-04-05_21h29.16.585,VisualSearchFaces,2024.2.4,Win32,60.24096386,,,,,,,,827.2142,827.3209,827.321,829.2996,block1,j,1,1.209,,1,23,63,16,1,1,top_left,threatening,neutral,,,,,,,,,,,,,,,,
,,,,,309681,M,y,r,n,11,0,2025-04-05_21h29.16.585,VisualSearchFaces,2024.2.4,Win32,60.24096386,,,,,,,,830.3316,830.4343,830.4343,832.4134,block1,j,1,0.6778,,1,24,64,14,1,1,bottom_right,friendly,neutral,,,,,,,,,,,,,,,,
,,,,,309681,M,y,r,n,11,0,2025-04-05_21h29.16.585,VisualSearchFaces,2024.2.4,Win32,60.24096386,,,,,,,,833.4465,833.5476,833.5477,835.5582,block1,f,1,0.693,,1,25,65,25,1,0,centre,neutral,no_target,,,,,,,,,,,,,,,,
,,,,,309681,M,y,r,n,11,0,2025-04-05_21h29.16.585,VisualSearchFaces,2024.2.4,Win32,60.24096386,,,,,,,,836.5378,836.638,836.6381,838.6316,block1,f,1,0.691,,1,26,66,26,1,0,top_left,neutral,no_target,,,,,,,,,,,,,,,,
,,,,,309681,M,y,r,n,11,0,2025-04-05_21h29.16.585,VisualSearchFaces,2024.2.4,Win32,60.24096386,,,,,,,,839.6406,839.7477,839.7478,841.7208,block1,f,1,1.8827,,1,27,67,36,1,0,top_left,threatening,no_target,,,,,,,,,,,,,,,,
,,,,,309681,M,y,r,n,11,0,2025-04-05_21h29.16.585,VisualSearchFaces,2024.2.4,Win32,60.24096386,,,,,,,,842.7578,842.862,842.862,844.8313,block1,j,1,0.7,,1,28,68,4,1,1,bottom_right,neutral,friendly,,,,,,,,,,,,,,,,
,,,,,309681,M,y,r,n,11,0,2025-04-05_21h29.16.585,VisualSearchFaces,2024.2.4,Win32,60.24096386,,,,,,,,845.8396,845.9441,845.9441,847.9589,block1,j,1,1.2196,,1,29,69,12,1,1,top_right,friendly,neutral,,,,,,,,,,,,,,,,
,,,,,309681,M,y,r,n,11,0,2025-04-05_21h29.16.585,VisualSearchFaces,2024.2.4,Win32,60.24096386,,,,,,,,848.9416,849.0393,849.0394,851.0299,block1,j,1,1.1171,,1,30,70,17,1,1,top_right,threatening,neutral,,,,,,,,,,,,,,,,
,,,,,309681,M,y,r,n,11,0,2025-04-05_21h29.16.585,VisualSearchFaces,2024.2.4,Win32,60.24096386,,,,,,,,852.0346,852.1553,852.1554,854.1523,block1,f,1,1.2723,,1,31,71,33,1,0,bottom_left,friendly,no_target,,,,,,,,,,,,,,,,
,,,,,309681,M,y,r,n,11,0,2025-04-05_21h29.16.585,VisualSearchFaces,2024.2.4,Win32,60.24096386,,,,,,,,855.1409,855.2524,855.2526,857.2566,block1,j,1,1.3188,,1,32,72,19,1,1,bottom_right,threatening,neutral,,,,,,,,,,,,,,,,
,,,,,309681,M,y,r,n,11,0,2025-04-05_21h29.16.585,VisualSearchFaces,2024.2.4,Win32,60.24096386,,,,,,,,858.2554,858.3522,858.3522,860.3286,block1,f,1,0.7503,,1,33,73,27,1,0,top_right,neutral,no_target,,,,,,,,,,,,,,,,
,,,,,309681,M,y,r,n,11,0,2025-04-05_21h29.16.585,VisualSearchFaces,2024.2.4,Win32,60.24096386,,,,,,,,861.3566,861.4607,861.4607,863.4636,block1,j,1,1.0037,,1,34,74,18,1,1,bottom_left,threatening,neutral,,,,,,,,,,,,,,,,
,,,,,309681,M,y,r,n,11,0,2025-04-05_21h29.16.585,VisualSearchFaces,2024.2.4,Win32,60.24096386,,,,,,,,864.4667,864.5734,864.5735,866.5465,block1,j,1,0.6442,,1,35,75,1,1,1,top_left,neutral,friendly,,,,,,,,,,,,,,,,
,,,,,309681,M,y,r,n,11,0,2025-04-05_21h29.16.585,VisualSearchFaces,2024.2.4,Win32,60.24096386,,,,,,,,867.5694,867.6704,867.6705,869.6405,block1,j,1,1.3026,,1,36,76,8,1,1,bottom_left,neutral,threatening,,,,,,,,,,,,,,,,
,,,,,309681,M,y,r,n,11,0,2025-04-05_21h29.16.585,VisualSearchFaces,2024.2.4,Win32,60.24096386,,,,,,,,870.6608,870.8007,870.8008,872.7641,block1,f,1,0.6574,,1,37,77,20,1,0,centre,neutral,no_target,,,,,,,,,,,,,,,,
,,,,,309681,M,y,r,n,11,0,2025-04-05_21h29.16.585,VisualSearchFaces,2024.2.4,Win32,60.24096386,,,,,,,,873.8001,873.9046,873.9047,875.8802,block1,f,1,0.9946,,1,38,78,34,1,0,bottom_right,friendly,no_target,,,,,,,,,,,,,,,,
,,,,,309681,M,y,r,n,11,0,2025-04-05_21h29.16.585,VisualSearchFaces,2024.2.4,Win32,60.24096386,,,,,,,,876.889,876.996,876.996,879.0118,block1,j,1,0.6399,,1,39,79,5,1,1,centre,neutral,threatening,,,,,,,,,,,,,,,,
,,,,,309681,M,y,r,n,11,0,2025-04-05_21h29.16.585,VisualSearchFaces,2024.2.4,Win32,60.24096386,,,1001.2569,1004.2333,space,2.9045,,1005.256,1005.3608,1005.3608,1007.3703,block2,f,1,1.1347,,0,0,0,36,1,0,top_left,threatening,no_target,879.0173,1001.2506,space,122.1731,,,,,,,,,,,,
,,,,,309681,M,y,r,n,11,0,2025-04-05_21h29.16.585,VisualSearchFaces,2024.2.4,Win32,60.24096386,,,,,,,,1008.351,1008.4537,1008.4538,1010.4517,block2,f,1,1.5121,,0,1,1,30,1,0,centre,friendly,no_target,,,,,,,,,,,,,,,,
,,,,,309681,M,y,r,n,11,0,2025-04-05_21h29.16.585,VisualSearchFaces,2024.2.4,Win32,60.24096386,,,,,,,,1011.4346,1011.538,1011.5381,1013.5202,block2,j,1,0.6036,,0,2,2,16,1,1,top_left,threatening,neutral,,,,,,,,,,,,,,,,
,,,,,309681,M,y,r,n,11,0,2025-04-05_21h29.16.585,VisualSearchFaces,2024.2.4,Win32,60.24096386,,,,,,,,1014.5133,1014.6169,1014.6171,1016.6308,block2,f,1,0.8399,,0,3,3,35,1,0,centre,threatening,no_target,,,,,,,,,,,,,,,,
,,,,,309681,M,y,r,n,11,0,2025-04-05_21h29.16.585,VisualSearchFaces,2024.2.4,Win32,60.24096386,,,,,,,,1017.6171,1017.7202,1017.7203,1019.6936,block2,j,1,0.645,,0,4,4,0,1,1,centre,neutral,friendly,,,,,,,,,,,,,,,,
,,,,,309681,M,y,r,n,11,0,2025-04-05_21h29.16.585,VisualSearchFaces,2024.2.4,Win32,60.24096386,,,,,,,,1020.716,1020.8552,1020.8553,1022.8689,block2,f,1,0.6374,,0,5,5,23,1,0,bottom_left,neutral,no_target,,,,,,,,,,,,,,,,
,,,,,309681,M,y,r,n,11,0,2025-04-05_21h29.16.585,VisualSearchFaces,2024.2.4,Win32,60.24096386,,,,,,,,1023.853,1023.9921,1023.9922,1025.9976,block2,j,1,0.45,,0,6,6,9,1,1,bottom_right,neutral,threatening,,,,,,,,,,,,,,,,
,,,,,309681,M,y,r,n,11,0,2025-04-05_21h29.16.585,VisualSearchFaces,2024.2.4,Win32,60.24096386,,,,,,,,1026.9997,1027.1114,1027.1114,1029.0771,block2,j,1,0.6165,,0,7,7,18,1,1,bottom_left,threatening,neutral,,,,,,,,,,,,,,,,
,,,,,309681,M,y,r,n,11,0,2025-04-05_21h29.16.585,VisualSearchFaces,2024.2.4,Win32,60.24096386,,,,,,,,1030.1146,1030.2247,1030.2247,1032.1946,block2,j,1,0.6744,,0,8,8,6,1,1,top_left,neutral,threatening,,,,,,,,,,,,,,,,
,,,,,309681,M,y,r,n,11,0,2025-04-05_21h29.16.585,VisualSearchFaces,2024.2.4,Win32,60.24096386,,,,,,,,1033.2163,1033.3479,1033.3481,1035.332,block2,j,1,0.7067,,0,9,9,14,1,1,bottom_right,friendly,neutral,,,,,,,,,,,,,,,,
,,,,,309681,M,y,r,n,11,0,2025-04-05_21h29.16.585,VisualSearchFaces,2024.2.4,Win32,60.24096386,,,,,,,,1036.3332,1036.437,1036.4371,1038.4107,block2,j,1,0.6156,,0,10,10,2,1,1,top_right,neutral,friendly,,,,,,,,,,,,,,,,
,,,,,309681,M,y,r,n,11,0,2025-04-05_21h29.16.585,VisualSearchFaces,2024.2.4,Win32,60.24096386,,,,,,,,1039.4211,1039.5552,1039.5553,1041.5328,block2,j,1,0.4856,,0,11,11,1,1,1,top_left,neutral,friendly,,,,,,,,,,,,,,,,
,,,,,309681,M,y,r,n,11,0,2025-04-05_21h29.16.585,VisualSearchFaces,2024.2.4,Win32,60.24096386,,,,,,,,1042.5646,1042.675,1042.675,1044.6557,block2,f,1,0.9775,,0,12,12,31,1,0,top_left,friendly,no_target,,,,,,,,,,,,,,,,
,,,,,309681,M,y,r,n,11,0,2025-04-05_21h29.16.585,VisualSearchFaces,2024.2.4,Win32,60.24096386,,,,,,,,1045.6681,1045.7709,1045.7709,1047.7648,block2,f,0,0.9896,,0,13,13,15,1,1,centre,threatening,neutral,,,,,,,,,,,,,,,,
,,,,,309681,M,y,r,n,11,0,2025-04-05_21h29.16.585,VisualSearchFaces,2024.2.4,Win32,60.24096386,,,,,,,,1048.7771,1048.879,1048.879,1050.888,block2,f,1,0.957,,0,14,14,37,1,0,top_right,threatening,no_target,,,,,,,,,,,,,,,,
,,,,,309681,M,y,r,n,11,0,2025-04-05_21h29.16.585,VisualSearchFaces,2024.2.4,Win32,60.24096386,,,,,,,,1051.8637,1051.9697,1051.9697,1053.976,block2,f,1,0.9739,,0,15,15,29,1,0,bottom_right,neutral,no_target,,,,,,,,,,,,,,,,
,,,,,309681,M,y,r,n,11,0,2025-04-05_21h29.16.585,VisualSearchFaces,2024.2.4,Win32,60.24096386,,,,,,,,1054.9521,1055.0527,1055.0527,1057.0454,block2,f,1,1.1164,,0,16,16,33,1,0,bottom_left,friendly,no_target,,,,,,,,,,,,,,,,
,,,,,309681,M,y,r,n,11,0,2025-04-05_21h29.16.585,VisualSearchFaces,2024.2.4,Win32,60.24096386,,,,,,,,1058.0557,1058.1604,1058.1604,1060.1266,block2,f,1,0.8521,,0,17,17,20,1,0,centre,neutral,no_target,,,,,,,,,,,,,,,,
,,,,,309681,M,y,r,n,11,0,2025-04-05_21h29.16.585,VisualSearchFaces,2024.2.4,Win32,60.24096386,,,,,,,,1061.1335,1061.2382,1061.2382,1063.2386,block2,f,1,1.314,,0,18,18,38,1,0,bottom_left,threatening,no_target,,,,,,,,,,,,,,,,
,,,,,309681,M,y,r,n,11,0,2025-04-05_21h29.16.585,VisualSearchFaces,2024.2.4,Win32,60.24096386,,,,,,,,1064.2173,1064.3211,1064.3213,1066.3227,block2,f,1,0.9296,,0,19,19,32,1,0,top_right,friendly,no_target,,,,,,,,,,,,,,,,
,,,,,309681,M,y,r,n,11,0,2025-04-05_21h29.16.585,VisualSearchFaces,2024.2.4,Win32,60.24096386,,,,,,,,1067.3076,1067.405,1067.405,1069.4061,block2,f,1,1.2379,,0,20,20,22,1,0,top_right,neutral,no_target,,,,,,,,,,,,,,,,
,,,,,309681,M,y,r,n,11,0,2025-04-05_21h29.16.585,VisualSearchFaces,2024.2.4,Win32,60.24096386,,,,,,,,1070.4274,1070.5338,1070.5339,1072.5117,block2,j,1,0.7095,,0,21,21,13,1,1,bottom_left,friendly,neutral,,,,,,,,,,,,,,,,
,,,,,309681,M,y,r,n,11,0,2025-04-05_21h29.16.585,VisualSearchFaces,2024.2.4,Win32,60.24096386,,,,,,,,1073.5248,1073.6554,1073.6555,1075.635,block2,j,1,0.6376,,0,22,22,10,1,1,centre,friendly,neutral,,,,,,,,,,,,,,,,
,,,,,309681,M,y,r,n,11,0,2025-04-05_21h29.16.585,VisualSearchFaces,2024.2.4,Win32,60.24096386,,,,,,,,1076.6527,1076.7888,1076.7889,1078.7651,block2,j,1,0.6186,,0,23,23,12,1,1,top_right,friendly,neutral,,,,,,,,,,,,,,,,
,,,,,309681,M,y,r,n,11,0,2025-04-05_21h29.16.585,VisualSearchFaces,2024.2.4,Win32,60.24096386,,,,,,,,1079.7987,1079.9359,1079.936,1081.9149,block2,j,1,0.5443,,0,24,24,3,1,1,bottom_left,neutral,friendly,,,,,,,,,,,,,,,,
,,,,,309681,M,y,r,n,11,0,2025-04-05_21h29.16.585,VisualSearchFaces,2024.2.4,Win32,60.24096386,,,,,,,,1082.9231,1083.0258,1083.0258,1085.0154,block2,j,1,0.5319,,0,25,25,17,1,1,top_right,threatening,neutral,,,,,,,,,,,,,,,,
,,,,,309681,M,y,r,n,11,0,2025-04-05_21h29.16.585,VisualSearchFaces,2024.2.4,Win32,60.24096386,,,,,,,,1085.9962,1086.1015,1086.1015,1088.1129,block2,f,1,0.7593,,0,26,26,28,1,0,bottom_left,neutral,no_target,,,,,,,,,,,,,,,,
,,,,,309681,M,y,r,n,11,0,2025-04-05_21h29.16.585,VisualSearchFaces,2024.2.4,Win32,60.24096386,,,,,,,,1089.0733,1089.1782,1089.1783,1091.1929,block2,j,1,0.8799,,0,27,27,11,1,1,top_left,friendly,neutral,,,,,,,,,,,,,,,,
,,,,,309681,M,y,r,n,11,0,2025-04-05_21h29.16.585,VisualSearchFaces,2024.2.4,Win32,60.24096386,,,,,,,,1092.2061,1092.3119,1092.3119,1094.2961,block2,f,1,0.8123,,0,28,28,26,1,0,top_left,neutral,no_target,,,,,,,,,,,,,,,,
,,,,,309681,M,y,r,n,11,0,2025-04-05_21h29.16.585,VisualSearchFaces,2024.2.4,Win32,60.24096386,,,,,,,,1095.2961,1095.3937,1095.3938,1097.3917,block2,j,1,0.6084,,0,29,29,7,1,1,top_right,neutral,threatening,,,,,,,,,,,,,,,,
,,,,,309681,M,y,r,n,11,0,2025-04-05_21h29.16.585,VisualSearchFaces,2024.2.4,Win32,60.24096386,,,,,,,,1098.4008,1098.5367,1098.5368,1100.5256,block2,f,1,0.6783,,0,30,30,24,1,0,bottom_right,neutral,no_target,,,,,,,,,,,,,,,,
,,,,,309681,M,y,r,n,11,0,2025-04-05_21h29.16.585,VisualSearchFaces,2024.2.4,Win32,60.24096386,,,,,,,,1101.5272,1101.6304,1101.6304,1103.5969,block2,j,0,0.7521,,0,31,31,34,1,0,bottom_right,friendly,no_target,,,,,,,,,,,,,,,,
,,,,,309681,M,y,r,n,11,0,2025-04-05_21h29.16.585,VisualSearchFaces,2024.2.4,Win32,60.24096386,,,,,,,,1104.6301,1104.7345,1104.7346,1106.7267,block2,f,1,0.6656,,0,32,32,27,1,0,top_right,neutral,no_target,,,,,,,,,,,,,,,,
,,,,,309681,M,y,r,n,11,0,2025-04-05_21h29.16.585,VisualSearchFaces,2024.2.4,Win32,60.24096386,,,,,,,,1107.7176,1107.8163,1107.8164,1109.7905,block2,f,1,0.9448,,0,33,33,39,1,0,bottom_right,threatening,no_target,,,,,,,,,,,,,,,,
,,,,,309681,M,y,r,n,11,0,2025-04-05_21h29.16.585,VisualSearchFaces,2024.2.4,Win32,60.24096386,,,,,,,,1110.8118,1110.9084,1110.9085,1112.9123,block2,j,1,0.5206,,0,34,34,19,1,1,bottom_right,threatening,neutral,,,,,,,,,,,,,,,,
,,,,,309681,M,y,r,n,11,0,2025-04-05_21h29.16.585,VisualSearchFaces,2024.2.4,Win32,60.24096386,,,,,,,,1113.9127,1114.0245,1114.0246,1116.0118,block2,j,1,0.5686,,0,35,35,5,1,1,centre,neutral,threatening,,,,,,,,,,,,,,,,
,,,,,309681,M,y,r,n,11,0,2025-04-05_21h29.16.585,VisualSearchFaces,2024.2.4,Win32,60.24096386,,,,,,,,1117.0082,1117.1108,1117.1109,1119.0934,block2,j,1,0.5913,,0,36,36,4,1,1,bottom_right,neutral,friendly,,,,,,,,,,,,,,,,
,,,,,309681,M,y,r,n,11,0,2025-04-05_21h29.16.585,VisualSearchFaces,2024.2.4,Win32,60.24096386,,,,,,,,1120.0828,1120.2321,1120.2322,1122.2193,block2,f,1,1.3641,,0,37,37,21,1,0,top_left,neutral,no_target,,,,,,,,,,,,,,,,
,,,,,309681,M,y,r,n,11,0,2025-04-05_21h29.16.585,VisualSearchFaces,2024.2.4,Win32,60.24096386,,,,,,,,1123.2142,1123.3421,1123.3422,1125.357,block2,f,1,0.4623,,0,38,38,25,1,0,centre,neutral,no_target,,,,,,,,,,,,,,,,
,,,,,309681,M,y,r,n,11,0,2025-04-05_21h29.16.585,VisualSearchFaces,2024.2.4,Win32,60.24096386,,,,,,,,1126.3424,1126.4415,1126.4416,1128.4251,block2,j,1,0.6154,,0,39,39,8,1,1,bottom_left,neutral,threatening,,,,,,,,,,,,,,,,
,,,,,309681,M,y,r,n,11,0,2025-04-05_21h29.16.585,VisualSearchFaces,2024.2.4,Win32,60.24096386,,,,,,,,1129.4282,1129.5251,1129.5252,1131.5234,block2,j,1,0.4936,,1,0,40,8,1,1,bottom_left,neutral,threatening,,,,,,,,,,,,,,,,
,,,,,309681,M,y,r,n,11,0,2025-04-05_21h29.16.585,VisualSearchFaces,2024.2.4,Win32,60.24096386,,,,,,,,1132.5128,1132.6116,1132.6117,1134.6264,block2,j,1,0.6716,,1,1,41,1,1,1,top_left,neutral,friendly,,,,,,,,,,,,,,,,
,,,,,309681,M,y,r,n,11,0,2025-04-05_21h29.16.585,VisualSearchFaces,2024.2.4,Win32,60.24096386,,,,,,,,1135.6179,1135.7309,1135.731,1137.7001,block2,f,1,0.7876,,1,2,42,35,1,0,centre,threatening,no_target,,,,,,,,,,,,,,,,
,,,,,309681,M,y,r,n,11,0,2025-04-05_21h29.16.585,VisualSearchFaces,2024.2.4,Win32,60.24096386,,,,,,,,1138.7115,1138.8187,1138.8188,1140.8063,block2,j,1,0.7087,,1,3,43,12,1,1,top_right,friendly,neutral,,,,,,,,,,,,,,,,
,,,,,309681,M,y,r,n,11,0,2025-04-05_21h29.16.585,VisualSearchFaces,2024.2.4,Win32,60.24096386,,,,,,,,1141.8249,1141.9495,1141.9496,1143.9353,block2,f,0,0.5506,,1,4,44,16,1,1,top_left,threatening,neutral,,,,,,,,,,,,,,,,
,,,,,309681,M,y,r,n,11,0,2025-04-05_21h29.16.585,VisualSearchFaces,2024.2.4,Win32,60.24096386,,,,,,,,1144.9365,1145.0709,1145.0709,1147.0574,block2,f,1,0.7675,,1,5,45,36,1,0,top_left,threatening,no_target,,,,,,,,,,,,,,,,
,,,,,309681,M,y,r,n,11,0,2025-04-05_21h29.16.585,VisualSearchFaces,2024.2.4,Win32,60.24096386,,,,,,,,1148.053,1148.1598,1148.1599,1150.1361,block2,j,0,0.8355,,1,6,46,25,1,0,centre,neutral,no_target,,,,,,,,,,,,,,,,
,,,,,309681,M,y,r,n,11,0,2025-04-05_21h29.16.585,VisualSearchFaces,2024.2.4,Win32,60.24096386,,,,,,,,1151.1515,1151.2935,1151.2935,1153.2581,block2,f,1,0.7875,,1,7,47,26,1,0,top_left,neutral,no_target,,,,,,,,,,,,,,,,
,,,,,309681,M,y,r,n,11,0,2025-04-05_21h29.16.585,VisualSearchFaces,2024.2.4,Win32,60.24096386,,,,,,,,1154.2935,1154.424,1154.4241,1156.4001,block2,j,0,0.5216,,1,8,48,23,1,0,bottom_left,neutral,no_target,,,,,,,,,,,,,,,,
,,,,,309681,M,y,r,n,11,0,2025-04-05_21h29.16.585,VisualSearchFaces,2024.2.4,Win32,60.24096386,,,,,,,,1157.4322,1157.566,1157.566,1159.5473,block2,j,1,0.8455,,1,9,49,18,1,1,bottom_left,threatening,neutral,,,,,,,,,,,,,,,,
,,,,,309681,M,y,r,n,11,0,2025-04-05_21h29.16.585,VisualSearchFaces,2024.2.4,Win32,60.24096386,,,,,,,,1160.5679,1160.702,1160.7021,1162.6835,block2,f,0,0.5316,,1,10,50,14,1,1,bottom_right,friendly,neutral,,,,,,,,,,,,,,,,
,,,,,309681,M,y,r,n,11,0,2025-04-05_21h29.16.585,VisualSearchFaces,2024.2.4,Win32,60.24096386,,,,,,,,1163.6804,1163.7803,1163.7803,1165.7894,block2,f,1,0.7768,,1,11,51,21,1,0,top_left,neutral,no_target,,,,,,,,,,,,,,,,
,,,,,309681,M,y,r,n,11,0,2025-04-05_21h29.16.585,VisualSearchFaces,2024.2.4,Win32,60.24096386,,,,,,,,1166.7573,1166.8613,1166.8614,1168.8597,block2,j,1,0.6286,,1,12,52,2,1,1,top_right,neutral,friendly,,,,,,,,,,,,,,,,
,,,,,309681,M,y,r,n,11,0,2025-04-05_21h29.16.585,VisualSearchFaces,2024.2.4,Win32,60.24096386,,,,,,,,1169.8465,1169.9841,1169.9841,1171.9714,block2,f,1,0.7173,,1,13,53,28,1,0,bottom_left,neutral,no_target,,,,,,,,,,,,,,,,
,,,,,309681,M,y,r,n,11,0,2025-04-05_21h29.16.585,VisualSearchFaces,2024.2.4,Win32,60.24096386,,,,,,,,1172.941,1173.04,1173.0401,1175.0106,block2,j,1,0.4827,,1,14,54,5,1,1,centre,neutral,threatening,,,,,,,,,,,,,,,,
,,,,,309681,M,y,r,n,11,0,2025-04-05_21h29.16.585,VisualSearchFaces,2024.2.4,Win32,60.24096386,,,,,,,,1176.0081,1176.1329,1176.1329,1178.105,block2,f,1,1.1241,,1,15,55,31,1,0,top_left,friendly,no_target,,,,,,,,,,,,,,,,
,,,,,309681,M,y,r,n,11,0,2025-04-05_21h29.16.585,VisualSearchFaces,2024.2.4,Win32,60.24096386,,,,,,,,1179.1094,1179.2495,1179.2496,1181.2313,block2,f,1,0.7578,,1,16,56,30,1,0,centre,friendly,no_target,,,,,,,,,,,,,,,,
,,,,,309681,M,y,r,n,11,0,2025-04-05_21h29.16.585,VisualSearchFaces,2024.2.4,Win32,60.24096386,,,,,,,,1182.2226,1182.33,1182.3301,1184.3275,block2,j,1,0.6648,,1,17,57,17,1,1,top_right,threatening,neutral,,,,,,,,,,,,,,,,
,,,,,309681,M,y,r,n,11,0,2025-04-05_21h29.16.585,VisualSearchFaces,2024.2.4,Win32,60.24096386,,,,,,,,1185.3013,1185.4043,1185.4043,1187.4152,block2,j,1,0.6334,,1,18,58,3,1,1,bottom_left,neutral,friendly,,,,,,,,,,,,,,,,
,,,,,309681,M,y,r,n,11,0,2025-04-05_21h29.16.585,VisualSearchFaces,2024.2.4,Win32,60.24096386,,,,,,,,1188.3744,1188.4744,1188.4746,1190.4544,block2,j,1,0.6702,,1,19,59,6,1,1,top_left,neutral,threatening,,,,,,,,,,,,,,,,
,,,,,309681,M,y,r,n,11,0,2025-04-05_21h29.16.585,VisualSearchFaces,2024.2.4,Win32,60.24096386,,,,,,,,1191.4656,1191.5887,1191.5888,1193.5943,block2,f,1,0.9174,,1,20,60,33,1,0,bottom_left,friendly,no_target,,,,,,,,,,,,,,,,
,,,,,309681,M,y,r,n,11,0,2025-04-05_21h29.16.585,VisualSearchFaces,2024.2.4,Win32,60.24096386,,,,,,,,1194.5856,1194.6979,1194.698,1196.714,block2,j,0,1.1927,,1,21,61,20,1,0,centre,neutral,no_target,,,,,,,,,,,,,,,,
,,,,,309681,M,y,r,n,11,0,2025-04-05_21h29.16.585,VisualSearchFaces,2024.2.4,Win32,60.24096386,,,,,,,,1197.691,1197.8163,1197.8164,1199.8301,block2,f,1,1.1089,,1,22,62,34,1,0,bottom_right,friendly,no_target,,,,,,,,,,,,,,,,
,,,,,309681,M,y,r,n,11,0,2025-04-05_21h29.16.585,VisualSearchFaces,2024.2.4,Win32,60.24096386,,,,,,,,1200.8156,1200.9273,1200.9275,1202.9073,block2,j,1,0.7065,,1,23,63,9,1,1,bottom_right,neutral,threatening,,,,,,,,,,,,,,,,
,,,,,309681,M,y,r,n,11,0,2025-04-05_21h29.16.585,VisualSearchFaces,2024.2.4,Win32,60.24096386,,,,,,,,1203.9242,1204.0269,1204.027,1205.9873,block2,j,1,0.7588,,1,24,64,0,1,1,centre,neutral,friendly,,,,,,,,,,,,,,,,
,,,,,309681,M,y,r,n,11,0,2025-04-05_21h29.16.585,VisualSearchFaces,2024.2.4,Win32,60.24096386,,,,,,,,1207.0344,1207.1573,1207.1574,1209.1486,block2,j,1,1.3503,,1,25,65,15,1,1,centre,threatening,neutral,,,,,,,,,,,,,,,,
,,,,,309681,M,y,r,n,11,0,2025-04-05_21h29.16.585,VisualSearchFaces,2024.2.4,Win32,60.24096386,,,,,,,,1210.1339,1210.2716,1210.2716,1212.279,block2,f,1,0.5173,,1,26,66,27,1,0,top_right,neutral,no_target,,,,,,,,,,,,,,,,
,,,,,309681,M,y,r,n,11,0,2025-04-05_21h29.16.585,VisualSearchFaces,2024.2.4,Win32,60.24096386,,,,,,,,1213.2814,1213.432,1213.432,1215.4128,block2,j,1,0.538,,1,27,67,7,1,1,top_right,neutral,threatening,,,,,,,,,,,,,,,,
,,,,,309681,M,y,r,n,11,0,2025-04-05_21h29.16.585,VisualSearchFaces,2024.2.4,Win32,60.24096386,,,,,,,,1216.4332,1216.571,1216.5711,1218.5366,block2,f,1,0.6661,,1,28,68,22,1,0,top_right,neutral,no_target,,,,,,,,,,,,,,,,
,,,,,309681,M,y,r,n,11,0,2025-04-05_21h29.16.585,VisualSearchFaces,2024.2.4,Win32,60.24096386,,,,,,,,1219.5781,1219.7027,1219.7029,1221.7283,block2,f,1,0.9741,,1,29,69,37,1,0,top_right,threatening,no_target,,,,,,,,,,,,,,,,
,,,,,309681,M,y,r,n,11,0,2025-04-05_21h29.16.585,VisualSearchFaces,2024.2.4,Win32,60.24096386,,,,,,,,1222.6742,1222.7788,1222.7789,1224.7479,block2,f,1,0.8924,,1,30,70,32,1,0,top_right,friendly,no_target,,,,,,,,,,,,,,,,
,,,,,309681,M,y,r,n,11,0,2025-04-05_21h29.16.585,VisualSearchFaces,2024.2.4,Win32,60.24096386,,,,,,,,1225.7718,1225.8763,1225.8764,1227.8586,block2,j,1,0.6597,,1,31,71,19,1,1,bottom_right,threatening,neutral,,,,,,,,,,,,,,,,
,,,,,309681,M,y,r,n,11,0,2025-04-05_21h29.16.585,VisualSearchFaces,2024.2.4,Win32,60.24096386,,,,,,,,1228.8584,1228.9942,1228.9944,1231.0021,block2,j,1,0.6675,,1,32,72,11,1,1,top_left,friendly,neutral,,,,,,,,,,,,,,,,
,,,,,309681,M,y,r,n,11,0,2025-04-05_21h29.16.585,VisualSearchFaces,2024.2.4,Win32,60.24096386,,,,,,,,1231.9832,1232.114,1232.1142,1234.1143,block2,j,1,1.2078,,1,33,73,10,1,1,centre,friendly,neutral,,,,,,,,,,,,,,,,
,,,,,309681,M,y,r,n,11,0,2025-04-05_21h29.16.585,VisualSearchFaces,2024.2.4,Win32,60.24096386,,,,,,,,1235.0906,1235.2004,1235.2004,1237.1912,block2,f,1,0.6844,,1,34,74,24,1,0,bottom_right,neutral,no_target,,,,,,,,,,,,,,,,
,,,,,309681,M,y,r,n,11,0,2025-04-05_21h29.16.585,VisualSearchFaces,2024.2.4,Win32,60.24096386,,,,,,,,1238.2241,1238.3273,1238.3274,1240.3316,block2,f,1,1.1874,,1,35,75,39,1,0,bottom_right,threatening,no_target,,,,,,,,,,,,,,,,
,,,,,309681,M,y,r,n,11,0,2025-04-05_21h29.16.585,VisualSearchFaces,2024.2.4,Win32,60.24096386,,,,,,,,1241.328,1241.4814,1241.4814,1243.4629,block2,f,1,0.9339,,1,36,76,38,1,0,bottom_left,threatening,no_target,,,,,,,,,,,,,,,,
,,,,,309681,M,y,r,n,11,0,2025-04-05_21h29.16.585,VisualSearchFaces,2024.2.4,Win32,60.24096386,,,,,,,,1244.4531,1244.5597,1244.5598,1246.527,block2,j,1,0.6073,,1,37,77,4,1,1,bottom_right,neutral,friendly,,,,,,,,,,,,,,,,
,,,,,309681,M,y,r,n,11,0,2025-04-05_21h29.16.585,VisualSearchFaces,2024.2.4,Win32,60.24096386,,,,,,,,1247.5434,1247.6809,1247.681,1249.6742,block2,f,1,0.7602,,1,38,78,29,1,0,bottom_right,neutral,no_target,,,,,,,,,,,,,,,,
,,,,,309681,M,y,r,n,11,0,2025-04-05_21h29.16.585,VisualSearchFaces,2024.2.4,Win32,60.24096386,,,,,,,,1250.6902,1250.8056,1250.8057,1252.7854,block2,j,1,0.7981,,1,39,79,13,1,1,bottom_left,friendly,neutral,,,,,,,,,,,,,,,,
,,,,,309681,M,y,r,n,11,0,2025-04-05_21h29.16.585,VisualSearchFaces,2024.2.4,Win32,60.24096386,,,1458.2894,1463.9796,space,5.6237,,1464.9556,1465.0552,1465.0552,1467.0523,block3,j,1,0.6686,,0,0,0,2,1,1,top_right,neutral,friendly,1252.7904,1458.2839,space,205.4332,,,,,,,,,,,,
,,,,,309681,M,y,r,n,11,0,2025-04-05_21h29.16.585,VisualSearchFaces,2024.2.4,Win32,60.24096386,,,,,,,,1468.0725,1468.1962,1468.1964,1470.1823,block3,j,1,0.8777,,0,1,1,13,1,1,bottom_left,friendly,neutral,,,,,,,,,,,,,,,,
,,,,,309681,M,y,r,n,11,0,2025-04-05_21h29.16.585,VisualSearchFaces,2024.2.4,Win32,60.24096386,,,,,,,,1471.1895,1471.2934,1471.2934,1473.258,block3,f,1,0.7905,,0,2,2,28,1,0,bottom_left,neutral,no_target,,,,,,,,,,,,,,,,
,,,,,309681,M,y,r,n,11,0,2025-04-05_21h29.16.585,VisualSearchFaces,2024.2.4,Win32,60.24096386,,,,,,,,1474.2978,1474.3983,1474.3984,1476.4189,block3,f,1,0.5854,,0,3,3,22,1,0,top_right,neutral,no_target,,,,,,,,,,,,,,,,
,,,,,309681,M,y,r,n,11,0,2025-04-05_21h29.16.585,VisualSearchFaces,2024.2.4,Win32,60.24096386,,,,,,,,1477.3787,1477.4861,1477.4862,1479.4864,block3,j,1,0.6762,,0,4,4,17,1,1,top_right,threatening,neutral,,,,,,,,,,,,,,,,
,,,,,309681,M,y,r,n,11,0,2025-04-05_21h29.16.585,VisualSearchFaces,2024.2.4,Win32,60.24096386,,,,,,,,1480.4575,1480.5609,1480.561,1482.5518,block3,f,1,1.0669,,0,5,5,37,1,0,top_right,threatening,no_target,,,,,,,,,,,,,,,,
,,,,,309681,M,y,r,n,11,0,2025-04-05_21h29.16.585,VisualSearchFaces,2024.2.4,Win32,60.24096386,,,,,,,,1483.5679,1483.6742,1483.6742,1485.6571,block3,f,1,0.7359,,0,6,6,29,1,0,bottom_right,neutral,no_target,,,,,,,,,,,,,,,,
,,,,,309681,M,y,r,n,11,0,2025-04-05_21h29.16.585,VisualSearchFaces,2024.2.4,Win32,60.24096386,,,,,,,,1486.6551,1486.7854,1486.7855,1488.7535,block3,j,1,0.7078,,0,7,7,4,1,1,bottom_right,neutral,friendly,,,,,,,,,,,,,,,,
,,,,,309681,M,y,r,n,11,0,2025-04-05_21h29.16.585,VisualSearchFaces,2024.2.4,Win32,60.24096386,,,,,,,,1489.7744,1489.8739,1489.8741,1491.8415,block3,f,1,0.9883,,0,8,8,21,1,0,top_left,neutral,no_target,,,,,,,,,,,,,,,,
,,,,,309681,M,y,r,n,11,0,2025-04-05_21h29.16.585,VisualSearchFaces,2024.2.4,Win32,60.24096386,,,,,,,,1492.8628,1493.0102,1493.0103,1495.0131,block3,j,1,0.6274,,0,9,9,1,1,1,top_left,neutral,friendly,,,,,,,,,,,,,,,,
,,,,,309681,M,y,r,n,11,0,2025-04-05_21h29.16.585,VisualSearchFaces,2024.2.4,Win32,60.24096386,,,,,,,,1496.0031,1496.1097,1496.1097,1498.1016,block3,j,1,1.1135,,0,10,10,14,1,1,bottom_right,friendly,neutral,,,,,,,,,,,,,,,,
,,,,,309681,M,y,r,n,11,0,2025-04-05_21h29.16.585,VisualSearchFaces,2024.2.4,Win32,60.24096386,,,,,,,,1499.108,1499.2038,1499.2038,1501.1753,block3,j,1,1.4193,,0,11,11,15,1,1,centre,threatening,neutral,,,,,,,,,,,,,,,,
,,,,,309681,M,y,r,n,11,0,2025-04-05_21h29.16.585,VisualSearchFaces,2024.2.4,Win32,60.24096386,,,,,,,,1502.1697,1502.2748,1502.2748,1504.2495,block3,f,1,0.9744,,0,12,12,27,1,0,top_right,neutral,no_target,,,,,,,,,,,,,,,,
,,,,,309681,M,y,r,n,11,0,2025-04-05_21h29.16.585,VisualSearchFaces,2024.2.4,Win32,60.24096386,,,,,,,,1505.2517,1505.3522,1505.3523,1507.3313,block3,f,1,1.2544,,0,13,13,32,1,0,top_right,friendly,no_target,,,,,,,,,,,,,,,,
,,,,,309681,M,y,r,n,11,0,2025-04-05_21h29.16.585,VisualSearchFaces,2024.2.4,Win32,60.24096386,,,,,,,,1508.3286,1508.4253,1508.4255,1510.4323,block3,f,1,1.0924,,0,14,14,30,1,0,centre,friendly,no_target,,,,,,,,,,,,,,,,
,,,,,309681,M,y,r,n,11,0,2025-04-05_21h29.16.585,VisualSearchFaces,2024.2.4,Win32,60.24096386,,,,,,,,1511.4227,1511.5325,1511.5326,1513.5513,block3,f,1,0.9953,,0,15,15,23,1,0,bottom_left,neutral,no_target,,,,,,,,,,,,,,,,
,,,,,309681,M,y,r,n,11,0,2025-04-05_21h29.16.585,VisualSearchFaces,2024.2.4,Win32,60.24096386,,,,,,,,1514.5487,1514.665,1514.665,1516.6513,block3,j,1,1.1476,,0,16,16,19,1,1,bottom_right,threatening,neutral,,,,,,,,,,,,,,,,
,,,,,309681,M,y,r,n,11,0,2025-04-05_21h29.16.585,VisualSearchFaces,2024.2.4,Win32,60.24096386,,,,,,,,1517.6533,1517.7503,1517.7503,1519.7257,block3,j,1,1.1874,,0,17,17,0,1,1,centre,neutral,friendly,,,,,,,,,,,,,,,,
,,,,,309681,M,y,r,n,11,0,2025-04-05_21h29.16.585,VisualSearchFaces,2024.2.4,Win32,60.24096386,,,,,,,,1520.7189,1520.8267,1520.8268,1522.8094,block3,f,1,0.8231,,0,18,18,38,1,0,bottom_left,threatening,no_target,,,,,,,,,,,,,,,,
,,,,,309681,M,y,r,n,11,0,2025-04-05_21h29.16.585,VisualSearchFaces,2024.2.4,Win32,60.24096386,,,,,,,,1523.8508,1523.9631,1523.9631,1525.933,block3,j,1,1.2384,,0,19,19,10,1,1,centre,friendly,neutral,,,,,,,,,,,,,,,,
,,,,,309681,M,y,r,n,11,0,2025-04-05_21h29.16.585,VisualSearchFaces,2024.2.4,Win32,60.24096386,,,,,,,,1526.9694,1527.0715,1527.0717,1529.0494,block3,f,0,1.5082,,0,20,20,16,1,1,top_left,threatening,neutral,,,,,,,,,,,,,,,,
,,,,,309681,M,y,r,n,11,0,2025-04-05_21h29.16.585,VisualSearchFaces,2024.2.4,Win32,60.24096386,,,,,,,,1530.0671,1530.1732,1530.1733,1532.1475,block3,f,1,0.7494,,0,21,21,25,1,0,centre,neutral,no_target,,,,,,,,,,,,,,,,
,,,,,309681,M,y,r,n,11,0,2025-04-05_21h29.16.585,VisualSearchFaces,2024.2.4,Win32,60.24096386,,,,,,,,1533.1859,1533.3228,1533.323,1535.2903,block3,j,1,0.5632,,0,22,22,9,1,1,bottom_right,neutral,threatening,,,,,,,,,,,,,,,,
,,,,,309681,M,y,r,n,11,0,2025-04-05_21h29.16.585,VisualSearchFaces,2024.2.4,Win32,60.24096386,,,,,,,,1536.2965,1536.4027,1536.4028,1538.3913,block3,j,1,1.8032,,0,23,23,12,1,1,top_right,friendly,neutral,,,,,,,,,,,,,,,,
,,,,,309681,M,y,r,n,11,0,2025-04-05_21h29.16.585,VisualSearchFaces,2024.2.4,Win32,60.24096386,,,,,,,,1539.3844,1539.4874,1539.4875,1541.4717,block3,f,1,0.7109,,0,24,24,24,1,0,bottom_right,neutral,no_target,,,,,,,,,,,,,,,,
,,,,,309681,M,y,r,n,11,0,2025-04-05_21h29.16.585,VisualSearchFaces,2024.2.4,Win32,60.24096386,,,,,,,,1542.4783,1542.5838,1542.5839,1544.5668,block3,f,0,1.5705,,0,25,25,11,1,1,top_left,friendly,neutral,,,,,,,,,,,,,,,,
,,,,,309681,M,y,r,n,11,0,2025-04-05_21h29.16.585,VisualSearchFaces,2024.2.4,Win32,60.24096386,,,,,,,,1545.5775,1545.6815,1545.6817,1547.6872,block3,f,1,0.9988,,0,26,26,31,1,0,top_left,friendly,no_target,,,,,,,,,,,,,,,,
,,,,,309681,M,y,r,n,11,0,2025-04-05_21h29.16.585,VisualSearchFaces,2024.2.4,Win32,60.24096386,,,,,,,,1548.6618,1548.7612,1548.7613,1550.774,block3,j,1,0.7909,,0,27,27,8,1,1,bottom_left,neutral,threatening,,,,,,,,,,,,,,,,
,,,,,309681,M,y,r,n,11,0,2025-04-05_21h29.16.585,VisualSearchFaces,2024.2.4,Win32,60.24096386,,,,,,,,1551.7676,1551.8997,1551.8998,1553.8773,block3,f,1,1.3415,,0,28,28,26,1,0,top_left,neutral,no_target,,,,,,,,,,,,,,,,
,,,,,309681,M,y,r,n,11,0,2025-04-05_21h29.16.585,VisualSearchFaces,2024.2.4,Win32,60.24096386,,,,,,,,1554.8799,1554.9847,1554.9848,1556.9764,block3,f,1,1.0119,,0,29,29,39,1,0,bottom_right,threatening,no_target,,,,,,,,,,,,,,,,
,,,,,309681,M,y,r,n,11,0,2025-04-05_21h29.16.585,VisualSearchFaces,2024.2.4,Win32,60.24096386,,,,,,,,1557.9868,1558.0952,1558.0953,1560.0853,block3,f,1,1.4795,,0,30,30,34,1,0,bottom_right,friendly,no_target,,,,,,,,,,,,,,,,
,,,,,309681,M,y,r,n,11,0,2025-04-05_21h29.16.585,VisualSearchFaces,2024.2.4,Win32,60.24096386,,,,,,,,1561.0585,1561.1634,1561.1634,1563.1335,block3,j,1,0.9789,,0,31,31,18,1,1,bottom_left,threatening,neutral,,,,,,,,,,,,,,,,
,,,,,309681,M,y,r,n,11,0,2025-04-05_21h29.16.585,VisualSearchFaces,2024.2.4,Win32,60.24096386,,,,,,,,1564.1554,1564.2631,1564.2631,1566.2737,block3,j,1,0.6171,,0,32,32,7,1,1,top_right,neutral,threatening,,,,,,,,,,,,,,,,
,,,,,309681,M,y,r,n,11,0,2025-04-05_21h29.16.585,VisualSearchFaces,2024.2.4,Win32,60.24096386,,,,,,,,1567.2756,1567.3739,1567.3739,1569.3655,block3,f,1,1.1924,,0,33,33,20,1,0,centre,neutral,no_target,,,,,,,,,,,,,,,,
,,,,,309681,M,y,r,n,11,0,2025-04-05_21h29.16.585,VisualSearchFaces,2024.2.4,Win32,60.24096386,,,,,,,,1570.3711,1570.4719,1570.472,1572.4974,block3,j,1,0.5343,,0,34,34,5,1,1,centre,neutral,threatening,,,,,,,,,,,,,,,,
,,,,,309681,M,y,r,n,11,0,2025-04-05_21h29.16.585,VisualSearchFaces,2024.2.4,Win32,60.24096386,,,,,,,,1573.4832,1573.5912,1573.5912,1575.5728,block3,f,1,1.5086,,0,35,35,33,1,0,bottom_left,friendly,no_target,,,,,,,,,,,,,,,,
,,,,,309681,M,y,r,n,11,0,2025-04-05_21h29.16.585,VisualSearchFaces,2024.2.4,Win32,60.24096386,,,,,,,,1576.599,1576.7035,1576.7036,1578.6964,block3,f,1,0.8002,,0,36,36,35,1,0,centre,threatening,no_target,,,,,,,,,,,,,,,,
,,,,,309681,M,y,r,n,11,0,2025-04-05_21h29.16.585,VisualSearchFaces,2024.2.4,Win32,60.24096386,,,,,,,,1579.713,1579.8486,1579.8487,1581.8267,block3,f,1,1.2734,,0,37,37,36,1,0,top_left,threatening,no_target,,,,,,,,,,,,,,,,
,,,,,309681,M,y,r,n,11,0,2025-04-05_21h29.16.585,VisualSearchFaces,2024.2.4,Win32,60.24096386,,,,,,,,1582.8623,1582.9695,1582.9696,1584.9393,block3,j,1,0.6111,,0,38,38,6,1,1,top_left,neutral,threatening,,,,,,,,,,,,,,,,
,,,,,309681,M,y,r,n,11,0,2025-04-05_21h29.16.585,VisualSearchFaces,2024.2.4,Win32,60.24096386,,,,,,,,1585.9433,1586.0958,1586.0959,1588.1031,block3,j,1,0.5016,,0,39,39,3,1,1,bottom_left,neutral,friendly,,,,,,,,,,,,,,,,
,,,,,309681,M,y,r,n,11,0,2025-04-05_21h29.16.585,VisualSearchFaces,2024.2.4,Win32,60.24096386,,,,,,,,1589.086,1589.1875,1589.1877,1591.2058,block3,j,1,0.6101,,1,0,40,1,1,1,top_left,neutral,friendly,,,,,,,,,,,,,,,,
,,,,,309681,M,y,r,n,11,0,2025-04-05_21h29.16.585,VisualSearchFaces,2024.2.4,Win32,60.24096386,,,,,,,,1592.1761,1592.284,1592.284,1594.2686,block3,j,1,1.7487,,1,1,41,16,1,1,top_left,threatening,neutral,,,,,,,,,,,,,,,,
,,,,,309681,M,y,r,n,11,0,2025-04-05_21h29.16.585,VisualSearchFaces,2024.2.4,Win32,60.24096386,,,,,,,,1595.3026,1595.4052,1595.4053,1597.3757,block3,f,1,0.8131,,1,2,42,28,1,0,bottom_left,neutral,no_target,,,,,,,,,,,,,,,,
,,,,,309681,M,y,r,n,11,0,2025-04-05_21h29.16.585,VisualSearchFaces,2024.2.4,Win32,60.24096386,,,,,,,,1598.3973,1598.5037,1598.5038,1600.4697,block3,j,1,1.0069,,1,3,43,19,1,1,bottom_right,threatening,neutral,,,,,,,,,,,,,,,,
,,,,,309681,M,y,r,n,11,0,2025-04-05_21h29.16.585,VisualSearchFaces,2024.2.4,Win32,60.24096386,,,,,,,,1601.4921,1601.5877,1601.5878,1603.5941,block3,j,1,0.6748,,1,4,44,18,1,1,bottom_left,threatening,neutral,,,,,,,,,,,,,,,,
,,,,,309681,M,y,r,n,11,0,2025-04-05_21h29.16.585,VisualSearchFaces,2024.2.4,Win32,60.24096386,,,,,,,,1604.5482,1604.695,1604.6951,1606.6548,block3,f,1,0.9557,,1,5,45,35,1,0,centre,threatening,no_target,,,,,,,,,,,,,,,,
,,,,,309681,M,y,r,n,11,0,2025-04-05_21h29.16.585,VisualSearchFaces,2024.2.4,Win32,60.24096386,,,,,,,,1607.6978,1607.8058,1607.806,1609.7922,block3,j,1,1.0789,,1,6,46,11,1,1,top_left,friendly,neutral,,,,,,,,,,,,,,,,
,,,,,309681,M,y,r,n,11,0,2025-04-05_21h29.16.585,VisualSearchFaces,2024.2.4,Win32,60.24096386,,,,,,,,1610.7814,1610.9133,1610.9134,1612.9067,block3,j,1,0.6332,,1,7,47,14,1,1,bottom_right,friendly,neutral,,,,,,,,,,,,,,,,
,,,,,309681,M,y,r,n,11,0,2025-04-05_21h29.16.585,VisualSearchFaces,2024.2.4,Win32,60.24096386,,,,,,,,1613.9028,1614.0096,1614.0096,1616.0196,block3,j,1,1.0548,,1,8,48,5,1,1,centre,neutral,threatening,,,,,,,,,,,,,,,,
,,,,,309681,M,y,r,n,11,0,2025-04-05_21h29.16.585,VisualSearchFaces,2024.2.4,Win32,60.24096386,,,,,,,,1617.0123,1617.1554,1617.1555,1619.1712,block3,j,1,0.6009,,1,9,49,9,1,1,bottom_right,neutral,threatening,,,,,,,,,,,,,,,,
,,,,,309681,M,y,r,n,11,0,2025-04-05_21h29.16.585,VisualSearchFaces,2024.2.4,Win32,60.24096386,,,,,,,,1620.125,1620.2231,1620.2231,1622.2074,block3,f,1,0.7282,,1,10,50,20,1,0,centre,neutral,no_target,,,,,,,,,,,,,,,,
,,,,,309681,M,y,r,n,11,0,2025-04-05_21h29.16.585,VisualSearchFaces,2024.2.4,Win32,60.24096386,,,,,,,,1623.2182,1623.3274,1623.3275,1625.3041,block3,f,1,0.7075,,1,11,51,31,1,0,top_left,friendly,no_target,,,,,,,,,,,,,,,,
,,,,,309681,M,y,r,n,11,0,2025-04-05_21h29.16.585,VisualSearchFaces,2024.2.4,Win32,60.24096386,,,,,,,,1626.3413,1626.4441,1626.4442,1628.4516,block3,j,1,1.6896,,1,12,52,2,1,1,top_right,neutral,friendly,,,,,,,,,,,,,,,,
,,,,,309681,M,y,r,n,11,0,2025-04-05_21h29.16.585,VisualSearchFaces,2024.2.4,Win32,60.24096386,,,,,,,,1629.4322,1629.5675,1629.5677,1631.5396,block3,f,1,1.1846,,1,13,53,33,1,0,bottom_left,friendly,no_target,,,,,,,,,,,,,,,,
,,,,,309681,M,y,r,n,11,0,2025-04-05_21h29.16.585,VisualSearchFaces,2024.2.4,Win32,60.24096386,,,,,,,,1632.5739,1632.6713,1632.6715,1634.6348,block3,j,1,0.9871,,1,14,54,10,1,1,centre,friendly,neutral,,,,,,,,,,,,,,,,
,,,,,309681,M,y,r,n,11,0,2025-04-05_21h29.16.585,VisualSearchFaces,2024.2.4,Win32,60.24096386,,,,,,,,1635.6808,1635.8141,1635.8142,1637.8039,block3,f,1,0.9104,,1,15,55,32,1,0,top_right,friendly,no_target,,,,,,,,,,,,,,,,
,,,,,309681,M,y,r,n,11,0,2025-04-05_21h29.16.585,VisualSearchFaces,2024.2.4,Win32,60.24096386,,,,,,,,1638.8008,1638.9029,1638.903,1640.8696,block3,j,1,0.9473,,1,16,56,12,1,1,top_right,friendly,neutral,,,,,,,,,,,,,,,,
,,,,,309681,M,y,r,n,11,0,2025-04-05_21h29.16.585,VisualSearchFaces,2024.2.4,Win32,60.24096386,,,,,,,,1641.888,1641.99,1641.99,1643.9893,block3,j,1,0.6241,,1,17,57,17,1,1,top_right,threatening,neutral,,,,,,,,,,,,,,,,
,,,,,309681,M,y,r,n,11,0,2025-04-05_21h29.16.585,VisualSearchFaces,2024.2.4,Win32,60.24096386,,,,,,,,1644.9822,1645.0879,1645.088,1647.0931,block3,j,1,0.6864,,1,18,58,15,1,1,centre,threatening,neutral,,,,,,,,,,,,,,,,
,,,,,309681,M,y,r,n,11,0,2025-04-05_21h29.16.585,VisualSearchFaces,2024.2.4,Win32,60.24096386,,,,,,,,1648.0853,1648.1956,1648.1957,1650.1779,block3,f,1,0.7696,,1,19,59,34,1,0,bottom_right,friendly,no_target,,,,,,,,,,,,,,,,
,,,,,309681,M,y,r,n,11,0,2025-04-05_21h29.16.585,VisualSearchFaces,2024.2.4,Win32,60.24096386,,,,,,,,1651.2024,1651.3082,1651.3082,1653.2905,block3,f,1,1.0696,,1,20,60,26,1,0,top_left,neutral,no_target,,,,,,,,,,,,,,,,
,,,,,309681,M,y,r,n,11,0,2025-04-05_21h29.16.585,VisualSearchFaces,2024.2.4,Win32,60.24096386,,,,,,,,1654.2891,1654.3941,1654.3942,1656.3783,block3,f,1,0.7587,,1,21,61,39,1,0,bottom_right,threatening,no_target,,,,,,,,,,,,,,,,
,,,,,309681,M,y,r,n,11,0,2025-04-05_21h29.16.585,VisualSearchFaces,2024.2.4,Win32,60.24096386,,,,,,,,1657.3709,1657.477,1657.477,1659.476,block3,f,1,1.4633,,1,22,62,27,1,0,top_right,neutral,no_target,,,,,,,,,,,,,,,,
,,,,,309681,M,y,r,n,11,0,2025-04-05_21h29.16.585,VisualSearchFaces,2024.2.4,Win32,60.24096386,,,,,,,,1660.4798,1660.5796,1660.5796,1662.5453,block3,f,1,1.8744,,1,23,63,37,1,0,top_right,threatening,no_target,,,,,,,,,,,,,,,,
,,,,,309681,M,y,r,n,11,0,2025-04-05_21h29.16.585,VisualSearchFaces,2024.2.4,Win32,60.24096386,,,,,,,,1663.5911,1663.6939,1663.694,1665.693,block3,f,1,1.2945,,1,24,64,30,1,0,centre,friendly,no_target,,,,,,,,,,,,,,,,
,,,,,309681,M,y,r,n,11,0,2025-04-05_21h29.16.585,VisualSearchFaces,2024.2.4,Win32,60.24096386,,,,,,,,1666.6704,1666.7702,1666.7703,1668.7623,block3,f,1,1.1663,,1,25,65,22,1,0,top_right,neutral,no_target,,,,,,,,,,,,,,,,
,,,,,309681,M,y,r,n,11,0,2025-04-05_21h29.16.585,VisualSearchFaces,2024.2.4,Win32,60.24096386,,,,,,,,1669.7942,1669.9322,1669.9323,1671.9212,block3,j,1,0.5643,,1,26,66,0,1,1,centre,neutral,friendly,,,,,,,,,,,,,,,,
,,,,,309681,M,y,r,n,11,0,2025-04-05_21h29.16.585,VisualSearchFaces,2024.2.4,Win32,60.24096386,,,,,,,,1672.9238,1673.0274,1673.0274,1675.0102,block3,f,1,1.1947,,1,27,67,38,1,0,bottom_left,threatening,no_target,,,,,,,,,,,,,,,,
,,,,,309681,M,y,r,n,11,0,2025-04-05_21h29.16.585,VisualSearchFaces,2024.2.4,Win32,60.24096386,,,,,,,,1676.0437,1676.1494,1676.1495,1678.1493,block3,j,1,1.2494,,1,28,68,4,1,1,bottom_right,neutral,friendly,,,,,,,,,,,,,,,,
,,,,,309681,M,y,r,n,11,0,2025-04-05_21h29.16.585,VisualSearchFaces,2024.2.4,Win32,60.24096386,,,,,,,,1679.1338,1679.2346,1679.2349,1681.2138,block3,f,1,0.6347,,1,29,69,25,1,0,centre,neutral,no_target,,,,,,,,,,,,,,,,
,,,,,309681,M,y,r,n,11,0,2025-04-05_21h29.16.585,VisualSearchFaces,2024.2.4,Win32,60.24096386,,,,,,,,1682.2254,1682.3328,1682.3329,1684.3274,block3,f,1,1.495,,1,30,70,36,1,0,top_left,threatening,no_target,,,,,,,,,,,,,,,,
,,,,,309681,M,y,r,n,11,0,2025-04-05_21h29.16.585,VisualSearchFaces,2024.2.4,Win32,60.24096386,,,,,,,,1685.335,1685.4371,1685.4372,1687.4411,block3,j,1,0.7687,,1,31,71,7,1,1,top_right,neutral,threatening,,,,,,,,,,,,,,,,
,,,,,309681,M,y,r,n,11,0,2025-04-05_21h29.16.585,VisualSearchFaces,2024.2.4,Win32,60.24096386,,,,,,,,1688.4206,1688.5191,1688.5194,1690.4985,block3,f,1,1.033,,1,32,72,29,1,0,bottom_right,neutral,no_target,,,,,,,,,,,,,,,,
,,,,,309681,M,y,r,n,11,0,2025-04-05_21h29.16.585,VisualSearchFaces,2024.2.4,Win32,60.24096386,,,,,,,,1691.524,1691.6586,1691.6587,1693.6517,block3,f,1,0.8443,,1,33,73,21,1,0,top_left,neutral,no_target,,,,,,,,,,,,,,,,
,,,,,309681,M,y,r,n,11,0,2025-04-05_21h29.16.585,VisualSearchFaces,2024.2.4,Win32,60.24096386,,,,,,,,1694.6586,1694.7945,1694.7945,1696.7629,block3,j,1,0.5905,,1,34,74,3,1,1,bottom_left,neutral,friendly,,,,,,,,,,,,,,,,
,,,,,309681,M,y,r,n,11,0,2025-04-05_21h29.16.585,VisualSearchFaces,2024.2.4,Win32,60.24096386,,,,,,,,1697.7689,1697.866,1697.8661,1699.8462,block3,j,1,0.7048,,1,35,75,6,1,1,top_left,neutral,threatening,,,,,,,,,,,,,,,,
,,,,,309681,M,y,r,n,11,0,2025-04-05_21h29.16.585,VisualSearchFaces,2024.2.4,Win32,60.24096386,,,,,,,,1700.8388,1700.9423,1700.9423,1702.9263,block3,j,1,0.9824,,1,36,76,13,1,1,bottom_left,friendly,neutral,,,,,,,,,,,,,,,,
,,,,,309681,M,y,r,n,11,0,2025-04-05_21h29.16.585,VisualSearchFaces,2024.2.4,Win32,60.24096386,,,,,,,,1703.9266,1704.0319,1704.0319,1706.0147,block3,j,1,0.6505,,1,37,77,8,1,1,bottom_left,neutral,threatening,,,,,,,,,,,,,,,,
,,,,,309681,M,y,r,n,11,0,2025-04-05_21h29.16.585,VisualSearchFaces,2024.2.4,Win32,60.24096386,,,,,,,,1707.0252,1707.1645,1707.1646,1709.1334,block3,f,1,0.7936,,1,38,78,23,1,0,bottom_left,neutral,no_target,,,,,,,,,,,,,,,,
,,,,,309681,M,y,r,n,11,0,2025-04-05_21h29.16.585,VisualSearchFaces,2024.2.4,Win32,60.24096386,,,,,,,,1710.1352,1710.2759,1710.2759,1712.2931,block3,f,1,1.0636,,1,39,79,24,1,0,bottom_right,neutral,no_target,,,,,,,,,,,,,,,,
,,,,,309681,M,y,r,n,11,0,2025-04-05_21h29.16.585,VisualSearchFaces,2024.2.4,Win32,60.24096386,,,1930.1405,1937.1886,space,6.9757,,1938.196,1938.3228,1938.3229,1940.3056,block4,j,1,0.935,,0,0,0,16,1,1,top_left,threatening,neutral,1712.2986,1930.13,space,217.7703,,,,,,,,,,,,
,,,,,309681,M,y,r,n,11,0,2025-04-05_21h29.16.585,VisualSearchFaces,2024.2.4,Win32,60.24096386,,,,,,,,1941.3153,1941.4656,1941.4657,1943.4495,block4,j,1,0.6835,,0,1,1,19,1,1,bottom_right,threatening,neutral,,,,,,,,,,,,,,,,
,,,,,309681,M,y,r,n,11,0,2025-04-05_21h29.16.585,VisualSearchFaces,2024.2.4,Win32,60.24096386,,,,,,,,1944.4488,1944.5512,1944.5513,1946.5332,block4,f,1,0.5985,,0,2,2,25,1,0,centre,neutral,no_target,,,,,,,,,,,,,,,,
,,,,,309681,M,y,r,n,11,0,2025-04-05_21h29.16.585,VisualSearchFaces,2024.2.4,Win32,60.24096386,,,,,,,,1947.5268,1947.6295,1947.6296,1949.6143,block4,f,1,1.031,,0,3,3,38,1,0,bottom_left,threatening,no_target,,,,,,,,,,,,,,,,
,,,,,309681,M,y,r,n,11,0,2025-04-05_21h29.16.585,VisualSearchFaces,2024.2.4,Win32,60.24096386,,,,,,,,1950.6085,1950.7082,1950.7082,1952.6977,block4,f,1,1.2023,,0,4,4,35,1,0,centre,threatening,no_target,,,,,,,,,,,,,,,,
,,,,,309681,M,y,r,n,11,0,2025-04-05_21h29.16.585,VisualSearchFaces,2024.2.4,Win32,60.24096386,,,,,,,,1953.7098,1953.8201,1953.8202,1955.8227,block4,j,1,0.7659,,0,5,5,8,1,1,bottom_left,neutral,threatening,,,,,,,,,,,,,,,,
,,,,,309681,M,y,r,n,11,0,2025-04-05_21h29.16.585,VisualSearchFaces,2024.2.4,Win32,60.24096386,,,,,,,,1956.8263,1956.9273,1956.9275,1958.9207,block4,j,1,0.8294,,0,6,6,3,1,1,bottom_left,neutral,friendly,,,,,,,,,,,,,,,,
,,,,,309681,M,y,r,n,11,0,2025-04-05_21h29.16.585,VisualSearchFaces,2024.2.4,Win32,60.24096386,,,,,,,,1959.9161,1960.016,1960.016,1962.0095,block4,f,1,0.9246,,0,7,7,21,1,0,top_left,neutral,no_target,,,,,,,,,,,,,,,,
,,,,,309681,M,y,r,n,11,0,2025-04-05_21h29.16.585,VisualSearchFaces,2024.2.4,Win32,60.24096386,,,,,,,,1963.0038,1963.1071,1963.1073,1965.0864,block4,j,1,0.6507,,0,8,8,1,1,1,top_left,neutral,friendly,,,,,,,,,,,,,,,,
,,,,,309681,M,y,r,n,11,0,2025-04-05_21h29.16.585,VisualSearchFaces,2024.2.4,Win32,60.24096386,,,,,,,,1966.0724,1966.1954,1966.1954,1968.1858,block4,f,1,1.3849,,0,9,9,36,1,0,top_left,threatening,no_target,,,,,,,,,,,,,,,,
,,,,,309681,M,y,r,n,11,0,2025-04-05_21h29.16.585,VisualSearchFaces,2024.2.4,Win32,60.24096386,,,,,,,,1969.2066,1969.311,1969.3111,1971.3054,block4,f,1,0.9414,,0,10,10,31,1,0,top_left,friendly,no_target,,,,,,,,,,,,,,,,
,,,,,309681,M,y,r,n,11,0,2025-04-05_21h29.16.585,VisualSearchFaces,2024.2.4,Win32,60.24096386,,,,,,,,1972.2911,1972.3997,1972.3997,1974.4029,block4,j,1,0.5825,,0,11,11,4,1,1,bottom_right,neutral,friendly,,,,,,,,,,,,,,,,
,,,,,309681,M,y,r,n,11,0,2025-04-05_21h29.16.585,VisualSearchFaces,2024.2.4,Win32,60.24096386,,,,,,,,1975.4069,1975.5104,1975.5105,1977.5074,block4,f,1,0.9029,,0,12,12,39,1,0,bottom_right,threatening,no_target,,,,,,,,,,,,,,,,
,,,,,309681,M,y,r,n,11,0,2025-04-05_21h29.16.585,VisualSearchFaces,2024.2.4,Win32,60.24096386,,,,,,,,1978.5099,1978.6127,1978.6127,1980.5896,block4,j,1,1.3397,,0,13,13,10,1,1,centre,friendly,neutral,,,,,,,,,,,,,,,,
,,,,,309681,M,y,r,n,11,0,2025-04-05_21h29.16.585,VisualSearchFaces,2024.2.4,Win32,60.24096386,,,,,,,,1981.6098,1981.7475,1981.7475,1983.7616,block4,j,1,1.3195,,0,14,14,14,1,1,bottom_right,friendly,neutral,,,,,,,,,,,,,,,,
,,,,,309681,M,y,r,n,11,0,2025-04-05_21h29.16.585,VisualSearchFaces,2024.2.4,Win32,60.24096386,,,,,,,,1984.7555,1984.8601,1984.8602,1986.8433,block4,f,1,0.711,,0,15,15,20,1,0,centre,neutral,no_target,,,,,,,,,,,,,,,,
,,,,,309681,M,y,r,n,11,0,2025-04-05_21h29.16.585,VisualSearchFaces,2024.2.4,Win32,60.24096386,,,,,,,,1987.8483,1987.9802,1987.9804,1989.9621,block4,f,1,0.8753,,0,16,16,22,1,0,top_right,neutral,no_target,,,,,,,,,,,,,,,,
,,,,,309681,M,y,r,n,11,0,2025-04-05_21h29.16.585,VisualSearchFaces,2024.2.4,Win32,60.24096386,,,,,,,,1990.9626,1991.0706,1991.0707,1993.0664,block4,f,1,1.3282,,0,17,17,34,1,0,bottom_right,friendly,no_target,,,,,,,,,,,,,,,,
,,,,,309681,M,y,r,n,11,0,2025-04-05_21h29.16.585,VisualSearchFaces,2024.2.4,Win32,60.24096386,,,,,,,,1994.055,1994.1595,1994.1595,1996.1537,block4,f,1,1.2853,,0,18,18,37,1,0,top_right,threatening,no_target,,,,,,,,,,,,,,,,
,,,,,309681,M,y,r,n,11,0,2025-04-05_21h29.16.585,VisualSearchFaces,2024.2.4,Win32,60.24096386,,,,,,,,1997.1566,1997.2605,1997.2606,1999.2409,block4,f,1,0.7834,,0,19,19,29,1,0,bottom_right,neutral,no_target,,,,,,,,,,,,,,,,
,,,,,309681,M,y,r,n,11,0,2025-04-05_21h29.16.585,VisualSearchFaces,2024.2.4,Win32,60.24096386,,,,,,,,2000.2481,2000.3848,2000.3849,2002.3862,block4,j,1,0.5477,,0,20,20,9,1,1,bottom_right,neutral,threatening,,,,,,,,,,,,,,,,
,,,,,309681,M,y,r,n,11,0,2025-04-05_21h29.16.585,VisualSearchFaces,2024.2.4,Win32,60.24096386,,,,,,,,2003.3846,2003.4877,2003.4878,2005.5014,block4,j,1,0.5927,,0,21,21,6,1,1,top_left,neutral,threatening,,,,,,,,,,,,,,,,
,,,,,309681,M,y,r,n,11,0,2025-04-05_21h29.16.585,VisualSearchFaces,2024.2.4,Win32,60.24096386,,,,,,,,2006.4969,2006.6021,2006.6022,2008.5905,block4,f,0,1.5225,,0,22,22,12,1,1,top_right,friendly,neutral,,,,,,,,,,,,,,,,
,,,,,309681,M,y,r,n,11,0,2025-04-05_21h29.16.585,VisualSearchFaces,2024.2.4,Win32,60.24096386,,,,,,,,2009.6051,2009.7418,2009.742,2011.7178,block4,j,1,1.2375,,0,23,23,15,1,1,centre,threatening,neutral,,,,,,,,,,,,,,,,
,,,,,309681,M,y,r,n,11,0,2025-04-05_21h29.16.585,VisualSearchFaces,2024.2.4,Win32,60.24096386,,,,,,,,2012.7321,2012.8395,2012.8395,2014.8539,block4,j,1,0.6777,,0,24,24,5,1,1,centre,neutral,threatening,,,,,,,,,,,,,,,,
,,,,,309681,M,y,r,n,11,0,2025-04-05_21h29.16.585,VisualSearchFaces,2024.2.4,Win32,60.24096386,,,,,,,,2015.8071,2015.9412,2015.9412,2017.9425,block4,f,1,0.8336,,0,25,25,33,1,0,bottom_left,friendly,no_target,,,,,,,,,,,,,,,,
,,,,,309681,M,y,r,n,11,0,2025-04-05_21h29.16.585,VisualSearchFaces,2024.2.4,Win32,60.24096386,,,,,,,,2018.9278,2019.0329,2019.033,2021.0156,block4,j,1,1.0402,,0,26,26,0,1,1,centre,neutral,friendly,,,,,,,,,,,,,,,,
,,,,,309681,M,y,r,n,11,0,2025-04-05_21h29.16.585,VisualSearchFaces,2024.2.4,Win32,60.24096386,,,,,,,,2022.0327,2022.1384,2022.1384,2024.1428,block4,j,1,0.8089,,0,27,27,18,1,1,bottom_left,threatening,neutral,,,,,,,,,,,,,,,,
,,,,,309681,M,y,r,n,11,0,2025-04-05_21h29.16.585,VisualSearchFaces,2024.2.4,Win32,60.24096386,,,,,,,,2025.1386,2025.2449,2025.2451,2027.2248,block4,f,1,0.9616,,0,28,28,32,1,0,top_right,friendly,no_target,,,,,,,,,,,,,,,,
,,,,,309681,M,y,r,n,11,0,2025-04-05_21h29.16.585,VisualSearchFaces,2024.2.4,Win32,60.24096386,,,,,,,,2028.263,2028.3648,2028.3648,2030.334,block4,f,1,0.8845,,0,29,29,26,1,0,top_left,neutral,no_target,,,,,,,,,,,,,,,,
,,,,,309681,M,y,r,n,11,0,2025-04-05_21h29.16.585,VisualSearchFaces,2024.2.4,Win32,60.24096386,,,,,,,,2031.371,2031.4787,2031.4787,2033.4501,block4,j,1,1.0574,,0,30,30,11,1,1,top_left,friendly,neutral,,,,,,,,,,,,,,,,
,,,,,309681,M,y,r,n,11,0,2025-04-05_21h29.16.585,VisualSearchFaces,2024.2.4,Win32,60.24096386,,,,,,,,2034.4816,2034.5807,2034.5809,2036.5507,block4,j,1,0.7241,,0,31,31,13,1,1,bottom_left,friendly,neutral,,,,,,,,,,,,,,,,
,,,,,309681,M,y,r,n,11,0,2025-04-05_21h29.16.585,VisualSearchFaces,2024.2.4,Win32,60.24096386,,,,,,,,2037.5649,2037.6687,2037.6688,2039.6519,block4,f,1,1.0343,,0,32,32,30,1,0,centre,friendly,no_target,,,,,,,,,,,,,,,,
,,,,,309681,M,y,r,n,11,0,2025-04-05_21h29.16.585,VisualSearchFaces,2024.2.4,Win32,60.24096386,,,,,,,,2040.6584,2040.7701,2040.7701,2042.7688,block4,j,1,0.7963,,0,33,33,2,1,1,top_right,neutral,friendly,,,,,,,,,,,,,,,,
,,,,,309681,M,y,r,n,11,0,2025-04-05_21h29.16.585,VisualSearchFaces,2024.2.4,Win32,60.24096386,,,,,,,,2043.7773,2043.8904,2043.8904,2045.8829,block4,j,1,0.8944,,0,34,34,17,1,1,top_right,threatening,neutral,,,,,,,,,,,,,,,,
,,,,,309681,M,y,r,n,11,0,2025-04-05_21h29.16.585,VisualSearchFaces,2024.2.4,Win32,60.24096386,,,,,,,,2046.8606,2046.9662,2046.9663,2048.9327,block4,j,1,0.6165,,0,35,35,7,1,1,top_right,neutral,threatening,,,,,,,,,,,,,,,,
,,,,,309681,M,y,r,n,11,0,2025-04-05_21h29.16.585,VisualSearchFaces,2024.2.4,Win32,60.24096386,,,,,,,,2049.9521,2050.0522,2050.0523,2052.0172,block4,f,1,0.7093,,0,36,36,23,1,0,bottom_left,neutral,no_target,,,,,,,,,,,,,,,,
,,,,,309681,M,y,r,n,11,0,2025-04-05_21h29.16.585,VisualSearchFaces,2024.2.4,Win32,60.24096386,,,,,,,,2053.0746,2053.2108,2053.2109,2055.181,block4,f,1,1.0138,,0,37,37,27,1,0,top_right,neutral,no_target,,,,,,,,,,,,,,,,
,,,,,309681,M,y,r,n,11,0,2025-04-05_21h29.16.585,VisualSearchFaces,2024.2.4,Win32,60.24096386,,,,,,,,2056.208,2056.3372,2056.3372,2058.3593,block4,f,1,0.7504,,0,38,38,24,1,0,bottom_right,neutral,no_target,,,,,,,,,,,,,,,,
,,,,,309681,M,y,r,n,11,0,2025-04-05_21h29.16.585,VisualSearchFaces,2024.2.4,Win32,60.24096386,,,,,,,,2059.3585,2059.509,2059.5091,2061.4965,block4,f,1,0.6657,,0,39,39,28,1,0,bottom_left,neutral,no_target,,,,,,,,,,,,,,,,
,,,,,309681,M,y,r,n,11,0,2025-04-05_21h29.16.585,VisualSearchFaces,2024.2.4,Win32,60.24096386,,,,,,,,2062.4944,2062.6035,2062.6035,2064.5985,block4,j,1,1.2732,,1,0,40,15,1,1,centre,threatening,neutral,,,,,,,,,,,,,,,,
,,,,,309681,M,y,r,n,11,0,2025-04-05_21h29.16.585,VisualSearchFaces,2024.2.4,Win32,60.24096386,,,,,,,,2065.6078,2065.7569,2065.757,2067.7487,block4,f,1,0.6411,,1,1,41,36,1,0,top_left,threatening,no_target,,,,,,,,,,,,,,,,
,,,,,309681,M,y,r,n,11,0,2025-04-05_21h29.16.585,VisualSearchFaces,2024.2.4,Win32,60.24096386,,,,,,,,2068.7414,2068.8767,2068.8768,2070.8545,block4,j,1,0.962,,1,2,42,19,1,1,bottom_right,threatening,neutral,,,,,,,,,,,,,,,,
,,,,,309681,M,y,r,n,11,0,2025-04-05_21h29.16.585,VisualSearchFaces,2024.2.4,Win32,60.24096386,,,,,,,,2071.8678,2071.9788,2071.9789,2073.9555,block4,f,1,0.8246,,1,3,43,31,1,0,top_left,friendly,no_target,,,,,,,,,,,,,,,,
,,,,,309681,M,y,r,n,11,0,2025-04-05_21h29.16.585,VisualSearchFaces,2024.2.4,Win32,60.24096386,,,,,,,,2074.9884,2075.0935,2075.0935,2077.0749,block4,f,1,0.7344,,1,4,44,27,1,0,top_right,neutral,no_target,,,,,,,,,,,,,,,,
,,,,,309681,M,y,r,n,11,0,2025-04-05_21h29.16.585,VisualSearchFaces,2024.2.4,Win32,60.24096386,,,,,,,,2078.0924,2078.2417,2078.2418,2080.2599,block4,f,1,0.6729,,1,5,45,23,1,0,bottom_left,neutral,no_target,,,,,,,,,,,,,,,,
,,,,,309681,M,y,r,n,11,0,2025-04-05_21h29.16.585,VisualSearchFaces,2024.2.4,Win32,60.24096386,,,,,,,,2081.2538,2081.3607,2081.3608,2083.3364,block4,f,1,1.2756,,1,6,46,33,1,0,bottom_left,friendly,no_target,,,,,,,,,,,,,,,,
,,,,,309681,M,y,r,n,11,0,2025-04-05_21h29.16.585,VisualSearchFaces,2024.2.4,Win32,60.24096386,,,,,,,,2084.3461,2084.4486,2084.4487,2086.4686,block4,f,1,1.735,,1,7,47,34,1,0,bottom_right,friendly,no_target,,,,,,,,,,,,,,,,
,,,,,309681,M,y,r,n,11,0,2025-04-05_21h29.16.585,VisualSearchFaces,2024.2.4,Win32,60.24096386,,,,,,,,2087.4358,2087.5437,2087.5437,2089.531,block4,f,1,1.0628,,1,8,48,20,1,0,centre,neutral,no_target,,,,,,,,,,,,,,,,
,,,,,309681,M,y,r,n,11,0,2025-04-05_21h29.16.585,VisualSearchFaces,2024.2.4,Win32,60.24096386,,,,,,,,2090.5457,2090.6483,2090.6483,2092.6326,block4,j,1,0.6226,,1,9,49,14,1,1,bottom_right,friendly,neutral,,,,,,,,,,,,,,,,
,,,,,309681,M,y,r,n,11,0,2025-04-05_21h29.16.585,VisualSearchFaces,2024.2.4,Win32,60.24096386,,,,,,,,2093.6608,2093.7614,2093.7614,2095.7603,block4,f,1,0.8221,,1,10,50,26,1,0,top_left,neutral,no_target,,,,,,,,,,,,,,,,
,,,,,309681,M,y,r,n,11,0,2025-04-05_21h29.16.585,VisualSearchFaces,2024.2.4,Win32,60.24096386,,,,,,,,2096.7595,2096.8647,2096.8648,2098.83,block4,f,1,1.5025,,1,11,51,38,1,0,bottom_left,threatening,no_target,,,,,,,,,,,,,,,,
,,,,,309681,M,y,r,n,11,0,2025-04-05_21h29.16.585,VisualSearchFaces,2024.2.4,Win32,60.24096386,,,,,,,,2099.8806,2099.9835,2099.9836,2101.9905,block4,j,1,0.5794,,1,12,52,10,1,1,centre,friendly,neutral,,,,,,,,,,,,,,,,
,,,,,309681,M,y,r,n,11,0,2025-04-05_21h29.16.585,VisualSearchFaces,2024.2.4,Win32,60.24096386,,,,,,,,2102.9943,2103.0978,2103.0979,2105.0894,block4,j,1,0.5164,,1,13,53,5,1,1,centre,neutral,threatening,,,,,,,,,,,,,,,,
,,,,,309681,M,y,r,n,11,0,2025-04-05_21h29.16.585,VisualSearchFaces,2024.2.4,Win32,60.24096386,,,,,,,,2106.088,2106.2327,2106.2328,2108.2254,block4,f,1,0.7552,,1,14,54,29,1,0,bottom_right,neutral,no_target,,,,,,,,,,,,,,,,
,,,,,309681,M,y,r,n,11,0,2025-04-05_21h29.16.585,VisualSearchFaces,2024.2.4,Win32,60.24096386,,,,,,,,2109.228,2109.3308,2109.331,2111.3059,block4,j,1,0.6015,,1,15,55,3,1,1,bottom_left,neutral,friendly,,,,,,,,,,,,,,,,
,,,,,309681,M,y,r,n,11,0,2025-04-05_21h29.16.585,VisualSearchFaces,2024.2.4,Win32,60.24096386,,,,,,,,2112.3361,2112.4906,2112.4906,2114.4988,block4,j,1,0.5187,,1,16,56,7,1,1,top_right,neutral,threatening,,,,,,,,,,,,,,,,
,,,,,309681,M,y,r,n,11,0,2025-04-05_21h29.16.585,VisualSearchFaces,2024.2.4,Win32,60.24096386,,,,,,,,2115.4584,2115.5635,2115.5636,2117.5557,block4,j,1,0.804,,1,17,57,18,1,1,bottom_left,threatening,neutral,,,,,,,,,,,,,,,,
,,,,,309681,M,y,r,n,11,0,2025-04-05_21h29.16.585,VisualSearchFaces,2024.2.4,Win32,60.24096386,,,,,,,,2118.5516,2118.657,2118.6571,2120.6731,block4,j,1,0.6943,,1,18,58,4,1,1,bottom_right,neutral,friendly,,,,,,,,,,,,,,,,
,,,,,309681,M,y,r,n,11,0,2025-04-05_21h29.16.585,VisualSearchFaces,2024.2.4,Win32,60.24096386,,,,,,,,2121.6488,2121.7459,2121.746,2123.7144,block4,j,1,0.7018,,1,19,59,0,1,1,centre,neutral,friendly,,,,,,,,,,,,,,,,
,,,,,309681,M,y,r,n,11,0,2025-04-05_21h29.16.585,VisualSearchFaces,2024.2.4,Win32,60.24096386,,,,,,,,2124.7343,2124.8412,2124.8413,2126.8404,block4,f,1,0.7493,,1,20,60,39,1,0,bottom_right,threatening,no_target,,,,,,,,,,,,,,,,
,,,,,309681,M,y,r,n,11,0,2025-04-05_21h29.16.585,VisualSearchFaces,2024.2.4,Win32,60.24096386,,,,,,,,2127.832,2127.9447,2127.9447,2129.9121,block4,j,1,0.6111,,1,21,61,8,1,1,bottom_left,neutral,threatening,,,,,,,,,,,,,,,,
,,,,,309681,M,y,r,n,11,0,2025-04-05_21h29.16.585,VisualSearchFaces,2024.2.4,Win32,60.24096386,,,,,,,,2130.9169,2131.0118,2131.012,2133.0287,block4,j,1,0.5536,,1,22,62,9,1,1,bottom_right,neutral,threatening,,,,,,,,,,,,,,,,
,,,,,309681,M,y,r,n,11,0,2025-04-05_21h29.16.585,VisualSearchFaces,2024.2.4,Win32,60.24096386,,,,,,,,2133.9679,2134.0755,2134.0756,2136.0719,block4,f,1,0.6563,,1,23,63,35,1,0,centre,threatening,no_target,,,,,,,,,,,,,,,,
,,,,,309681,M,y,r,n,11,0,2025-04-05_21h29.16.585,VisualSearchFaces,2024.2.4,Win32,60.24096386,,,,,,,,2137.0654,2137.2221,2137.2222,2139.1886,block4,f,1,0.6726,,1,24,64,37,1,0,top_right,threatening,no_target,,,,,,,,,,,,,,,,
,,,,,309681,M,y,r,n,11,0,2025-04-05_21h29.16.585,VisualSearchFaces,2024.2.4,Win32,60.24096386,,,,,,,,2140.1959,2140.3025,2140.3025,2142.3056,block4,j,1,0.8319,,1,25,65,12,1,1,top_right,friendly,neutral,,,,,,,,,,,,,,,,
,,,,,309681,M,y,r,n,11,0,2025-04-05_21h29.16.585,VisualSearchFaces,2024.2.4,Win32,60.24096386,,,,,,,,2143.3,2143.4059,2143.4059,2145.3957,block4,j,1,0.6018,,1,26,66,2,1,1,top_right,neutral,friendly,,,,,,,,,,,,,,,,
,,,,,309681,M,y,r,n,11,0,2025-04-05_21h29.16.585,VisualSearchFaces,2024.2.4,Win32,60.24096386,,,,,,,,2146.3828,2146.4908,2146.4908,2148.4546,block4,f,0,0.8499,,1,27,67,11,1,1,top_left,friendly,neutral,,,,,,,,,,,,,,,,
,,,,,309681,M,y,r,n,11,0,2025-04-05_21h29.16.585,VisualSearchFaces,2024.2.4,Win32,60.24096386,,,,,,,,2149.4657,2149.5681,2149.5681,2151.5893,block4,f,1,0.7447,,1,28,68,28,1,0,bottom_left,neutral,no_target,,,,,,,,,,,,,,,,
,,,,,309681,M,y,r,n,11,0,2025-04-05_21h29.16.585,VisualSearchFaces,2024.2.4,Win32,60.24096386,,,,,,,,2152.5821,2152.711,2152.7111,2154.6764,block4,f,1,0.642,,1,29,69,22,1,0,top_right,neutral,no_target,,,,,,,,,,,,,,,,
,,,,,309681,M,y,r,n,11,0,2025-04-05_21h29.16.585,VisualSearchFaces,2024.2.4,Win32,60.24096386,,,,,,,,2155.6878,2155.8175,2155.8175,2157.7981,block4,f,1,0.9074,,1,30,70,25,1,0,centre,neutral,no_target,,,,,,,,,,,,,,,,
,,,,,309681,M,y,r,n,11,0,2025-04-05_21h29.16.585,VisualSearchFaces,2024.2.4,Win32,60.24096386,,,,,,,,2158.8237,2158.9286,2158.9286,2160.9106,block4,j,1,0.6455,,1,31,71,17,1,1,top_right,threatening,neutral,,,,,,,,,,,,,,,,
,,,,,309681,M,y,r,n,11,0,2025-04-05_21h29.16.585,VisualSearchFaces,2024.2.4,Win32,60.24096386,,,,,,,,2161.9311,2162.0375,2162.0375,2164.0216,block4,f,1,0.7346,,1,32,72,21,1,0,top_left,neutral,no_target,,,,,,,,,,,,,,,,
,,,,,309681,M,y,r,n,11,0,2025-04-05_21h29.16.585,VisualSearchFaces,2024.2.4,Win32,60.24096386,,,,,,,,2165.0219,2165.1261,2165.1262,2167.098,block4,f,1,0.8249,,1,33,73,30,1,0,centre,friendly,no_target,,,,,,,,,,,,,,,,
,,,,,309681,M,y,r,n,11,0,2025-04-05_21h29.16.585,VisualSearchFaces,2024.2.4,Win32,60.24096386,,,,,,,,2168.0964,2168.2017,2168.2018,2170.1882,block4,j,1,0.6048,,1,34,74,16,1,1,top_left,threatening,neutral,,,,,,,,,,,,,,,,
,,,,,309681,M,y,r,n,11,0,2025-04-05_21h29.16.585,VisualSearchFaces,2024.2.4,Win32,60.24096386,,,,,,,,2171.209,2171.3077,2171.3078,2173.3037,block4,j,1,0.6488,,1,35,75,13,1,1,bottom_left,friendly,neutral,,,,,,,,,,,,,,,,
,,,,,309681,M,y,r,n,11,0,2025-04-05_21h29.16.585,VisualSearchFaces,2024.2.4,Win32,60.24096386,,,,,,,,2174.3084,2174.415,2174.4151,2176.415,block4,f,1,0.7175,,1,36,76,24,1,0,bottom_right,neutral,no_target,,,,,,,,,,,,,,,,
,,,,,309681,M,y,r,n,11,0,2025-04-05_21h29.16.585,VisualSearchFaces,2024.2.4,Win32,60.24096386,,,,,,,,2177.3939,2177.5013,2177.5014,2179.4793,block4,f,1,1.3256,,1,37,77,32,1,0,top_right,friendly,no_target,,,,,,,,,,,,,,,,
,,,,,309681,M,y,r,n,11,0,2025-04-05_21h29.16.585,VisualSearchFaces,2024.2.4,Win32,60.24096386,,,,,,,,2180.5067,2180.6079,2180.6079,2182.5864,block4,j,1,0.5607,,1,38,78,1,1,1,top_left,neutral,friendly,,,,,,,,,,,,,,,,
,,,,,309681,M,y,r,n,11,0,2025-04-05_21h29.16.585,VisualSearchFaces,2024.2.4,Win32,60.24096386,,,,,,,,2183.5969,2183.6965,2183.6966,2185.7043,block4,j,1,0.5252,,1,39,79,6,1,1,top_left,neutral,threatening,,,,,,,,,,,,,,,,
,,,,,309681,M,y,r,n,11,0,2025-04-05_21h29.16.585,VisualSearchFaces,2024.2.4,Win32,60.24096386,,,,,,,,,,,,,,,,,,,,,,,,,,2185.707,2210.8371,space,25.0706,,2210.8394,2264.5238,cubic faces watching me with differint emotions,1,[2264.5205],[2264.5205],,,,,
,,,,,309681,M,y,r,n,11,0,2025-04-05_21h29.16.585,VisualSearchFaces,2024.2.4,Win32,60.24096386,,,,,,,,,,,,,,,,,,,,,,,,,,,,,,,,,,,,,2264.5256,2269.091,space,4.5073,
