Welcome.started,Welcome.stopped,keyboard_space_welcome.keys,keyboard_space_welcome.rt,keyboard_space_welcome.duration,participant,gender,(corrected) normal vision,handedness,exp vse,session,skip_intro,date,expName,psychopyVersion,OS,frameRate,stimulus_exposure.started,stimulus_exposure.stopped,Block_intro.started,Block_intro.stopped,keyboard_space.keys,keyboard_space.rt,keyboard_space.duration,Stimulus.started,Stimulus.stopped,fixation_ending.started,fixation_ending.stopped,block_id,keyboard_response.keys,keyboard_response.corr,trials.thisRepN,trials.thisTrialN,trials.thisN,trials.thisIndex,trials.ran,target_presence,target_position,background_emotion,target_emotion,keyboard_response.rt,keyboard_response.duration,Block_outro.started,Block_outro.stopped,keyboard_space_end.keys,keyboard_space_end.rt,keyboard_space_end.duration,Question_about_stimulus.started,Question_about_stimulus.stopped,textbox_response.text,button.numClicks,button.timesOn,button.timesOff,Thanks.started,Thanks.stopped,keyboard_space_goodbye.keys,keyboard_space_goodbye.rt,keyboard_space_goodbye.duration
0.0005,138.3642,space,138.2658,,330768,f,y,r,n,14,0,2025-04-06_19h19.01.793,VisualSearchFaces,2024.2.4,Win32,59.17159763,,,,,,,,,,,,,,,,,,,,,,,,,,,,,,,,,,,,,,,,,
,,,,,330768,f,y,r,n,14,0,2025-04-06_19h19.01.793,VisualSearchFaces,2024.2.4,Win32,59.17159763,159.4935,162.5055,162.5161,216.0738,space,53.5233,,217.0773,217.3291,217.3294,219.3229,practice1,,0,0,0,0,17,1,1,top_right,threatening,neutral,,,,,,,,,,,,,,,,,,
,,,,,330768,f,y,r,n,14,0,2025-04-06_19h19.01.793,VisualSearchFaces,2024.2.4,Win32,59.17159763,,,,,,,,220.3263,220.5885,220.5886,222.5763,practice1,,0,0,1,1,24,1,0,bottom_right,neutral,no_target,,,,,,,,,,,,,,,,,,
,,,,,330768,f,y,r,n,14,0,2025-04-06_19h19.01.793,VisualSearchFaces,2024.2.4,Win32,59.17159763,,,,,,,,223.5921,223.8381,223.8383,225.8376,practice1,,0,0,2,2,31,1,0,top_left,friendly,no_target,,,,,,,,,,,,,,,,,,
,,,,,330768,f,y,r,n,14,0,2025-04-06_19h19.01.793,VisualSearchFaces,2024.2.4,Win32,59.17159763,,,,,,,,226.8422,227.1033,227.1036,229.1028,practice1,f,0,0,3,3,8,1,1,bottom_left,neutral,threatening,0.8175,,,,,,,,,,,,,,,,,
,,,,,330768,f,y,r,n,14,0,2025-04-06_19h19.01.793,VisualSearchFaces,2024.2.4,Win32,59.17159763,,,,,,,,230.1077,230.3691,230.3692,232.3681,practice1,f,0,0,4,4,13,1,1,bottom_left,friendly,neutral,0.2284,,,,,,,,,,,,,,,,,
,,,,,330768,f,y,r,n,14,0,2025-04-06_19h19.01.793,VisualSearchFaces,2024.2.4,Win32,59.17159763,,,,,,,,233.371,233.6183,233.6184,235.6174,practice1,f,0,0,5,5,18,1,1,bottom_left,threatening,neutral,0.4504,,,,,,,,,,,,,,,,,
,,,,,330768,f,y,r,n,14,0,2025-04-06_19h19.01.793,VisualSearchFaces,2024.2.4,Win32,59.17159763,,,,,,,,236.6221,236.884,236.8841,238.8836,practice1,,0,0,6,6,38,1,0,bottom_left,threatening,no_target,,,,,,,,,,,,,,,,,,
,,,,,330768,f,y,r,n,14,0,2025-04-06_19h19.01.793,VisualSearchFaces,2024.2.4,Win32,59.17159763,,,,,,,,239.8874,240.1496,240.1499,242.1491,practice1,j,1,0,7,7,9,1,1,bottom_right,neutral,threatening,0.5495,,,,,,,,,,,,,,,,,
,,,,,330768,f,y,r,n,14,0,2025-04-06_19h19.01.793,VisualSearchFaces,2024.2.4,Win32,59.17159763,,,,,,,,243.1541,243.4153,243.4154,245.4147,practice1,f,1,0,8,8,34,1,0,bottom_right,friendly,no_target,0.4538,,,,,,,,,,,,,,,,,
,,,,,330768,f,y,r,n,14,0,2025-04-06_19h19.01.793,VisualSearchFaces,2024.2.4,Win32,59.17159763,,,,,,,,246.4195,246.6822,246.6824,248.6808,practice1,j,1,0,9,9,3,1,1,bottom_left,neutral,friendly,0.4341,,,,,,,,,,,,,,,,,
,,,,,330768,f,y,r,n,14,0,2025-04-06_19h19.01.793,VisualSearchFaces,2024.2.4,Win32,59.17159763,,,,,,,,249.6859,249.9309,249.9311,251.9296,practice1,f,1,0,10,10,36,1,0,top_left,threatening,no_target,1.6038,,,,,,,,,,,,,,,,,
,,,,,330768,f,y,r,n,14,0,2025-04-06_19h19.01.793,VisualSearchFaces,2024.2.4,Win32,59.17159763,,,,,,,,252.9346,253.1799,253.1801,255.1786,practice1,j,1,0,11,11,2,1,1,top_right,neutral,friendly,0.3657,,,,,,,,,,,,,,,,,
,,,,,330768,f,y,r,n,14,0,2025-04-06_19h19.01.793,VisualSearchFaces,2024.2.4,Win32,59.17159763,,,,,,,,256.1838,256.445,256.4451,258.4449,practice1,f,0,0,12,12,11,1,1,top_left,friendly,neutral,0.3328,,,,,,,,,,,,,,,,,
,,,,,330768,f,y,r,n,14,0,2025-04-06_19h19.01.793,VisualSearchFaces,2024.2.4,Win32,59.17159763,,,,,,,,259.4488,259.7111,259.7112,261.7098,practice1,j,1,0,13,13,10,1,1,centre,friendly,neutral,0.0167,,,,,,,,,,,,,,,,,
,,,,,330768,f,y,r,n,14,0,2025-04-06_19h19.01.793,VisualSearchFaces,2024.2.4,Win32,59.17159763,,,,,,,,262.7152,262.9762,262.9763,264.9758,practice1,j,0,0,14,14,23,1,0,bottom_left,neutral,no_target,0.6335,,,,,,,,,,,,,,,,,
,,,,,330768,f,y,r,n,14,0,2025-04-06_19h19.01.793,VisualSearchFaces,2024.2.4,Win32,59.17159763,,,,,,,,265.9802,266.2262,266.2263,268.2247,practice1,f,1,0,15,15,39,1,0,bottom_right,threatening,no_target,0.8687,,,,,,,,,,,,,,,,,
,,,,,330768,f,y,r,n,14,0,2025-04-06_19h19.01.793,VisualSearchFaces,2024.2.4,Win32,59.17159763,,,,,,,,269.2286,269.4909,269.491,271.4905,practice1,j,0,0,16,16,27,1,0,top_right,neutral,no_target,1.0669,,,,,,,,,,,,,,,,,
,,,,,330768,f,y,r,n,14,0,2025-04-06_19h19.01.793,VisualSearchFaces,2024.2.4,Win32,59.17159763,,,,,,,,272.4956,272.7568,272.757,274.756,practice1,j,1,0,17,17,14,1,1,bottom_right,friendly,neutral,0.402,,,,,,,,,,,,,,,,,
,,,,,330768,f,y,r,n,14,0,2025-04-06_19h19.01.793,VisualSearchFaces,2024.2.4,Win32,59.17159763,,,,,,,,275.7606,276.0225,276.0227,278.0221,practice1,f,1,0,18,18,21,1,0,top_left,neutral,no_target,0.2501,,,,,,,,,,,,,,,,,
,,,,,330768,f,y,r,n,14,0,2025-04-06_19h19.01.793,VisualSearchFaces,2024.2.4,Win32,59.17159763,,,,,,,,279.0265,279.2881,279.2883,281.2877,practice1,f,0,0,19,19,1,1,1,top_left,neutral,friendly,0.1674,,,,,,,,,,,,,,,,,
,,,,,330768,f,y,r,n,14,0,2025-04-06_19h19.01.793,VisualSearchFaces,2024.2.4,Win32,59.17159763,,,,,,,,282.2921,282.5537,282.5538,284.5531,practice1,j,0,0,20,20,20,1,0,centre,neutral,no_target,0.1007,,,,,,,,,,,,,,,,,
,,,,,330768,f,y,r,n,14,0,2025-04-06_19h19.01.793,VisualSearchFaces,2024.2.4,Win32,59.17159763,,,,,,,,285.558,285.8202,285.8204,287.819,practice1,f,1,0,21,21,29,1,0,bottom_right,neutral,no_target,0.6502,,,,,,,,,,,,,,,,,
,,,,,330768,f,y,r,n,14,0,2025-04-06_19h19.01.793,VisualSearchFaces,2024.2.4,Win32,59.17159763,,,,,,,,288.824,289.0854,289.0855,291.0847,practice1,j,1,0,22,22,0,1,1,centre,neutral,friendly,0.4516,,,,,,,,,,,,,,,,,
,,,,,330768,f,y,r,n,14,0,2025-04-06_19h19.01.793,VisualSearchFaces,2024.2.4,Win32,59.17159763,,,,,,,,292.0885,292.3509,292.351,294.3502,practice1,f,1,0,23,23,28,1,0,bottom_left,neutral,no_target,0.8837,,,,,,,,,,,,,,,,,
,,,,,330768,f,y,r,n,14,0,2025-04-06_19h19.01.793,VisualSearchFaces,2024.2.4,Win32,59.17159763,,,,,,,,295.355,295.6166,295.6167,297.6162,practice1,f,1,0,24,24,25,1,0,centre,neutral,no_target,0.6675,,,,,,,,,,,,,,,,,
,,,,,330768,f,y,r,n,14,0,2025-04-06_19h19.01.793,VisualSearchFaces,2024.2.4,Win32,59.17159763,,,,,,,,298.6209,298.8826,298.8827,300.8779,practice1,f,1,0,25,25,32,1,0,top_right,friendly,no_target,0.6512,,,,,,,,,,,,,,,,,
,,,,,330768,f,y,r,n,14,0,2025-04-06_19h19.01.793,VisualSearchFaces,2024.2.4,Win32,59.17159763,,,,,,,,301.8865,302.1481,302.1482,304.1477,practice1,j,1,0,26,26,12,1,1,top_right,friendly,neutral,0.4839,,,,,,,,,,,,,,,,,
,,,,,330768,f,y,r,n,14,0,2025-04-06_19h19.01.793,VisualSearchFaces,2024.2.4,Win32,59.17159763,,,,,,,,305.1525,305.4136,305.4137,307.4132,practice1,f,1,0,27,27,35,1,0,centre,threatening,no_target,0.4517,,,,,,,,,,,,,,,,,
,,,,,330768,f,y,r,n,14,0,2025-04-06_19h19.01.793,VisualSearchFaces,2024.2.4,Win32,59.17159763,,,,,,,,308.4179,308.6798,308.68,310.6789,practice1,f,1,0,28,28,30,1,0,centre,friendly,no_target,0.6356,,,,,,,,,,,,,,,,,
,,,,,330768,f,y,r,n,14,0,2025-04-06_19h19.01.793,VisualSearchFaces,2024.2.4,Win32,59.17159763,,,,,,,,311.6838,311.9457,311.946,313.9447,practice1,f,1,0,29,29,33,1,0,bottom_left,friendly,no_target,1.2166,,,,,,,,,,,,,,,,,
,,,,,330768,f,y,r,n,14,0,2025-04-06_19h19.01.793,VisualSearchFaces,2024.2.4,Win32,59.17159763,,,,,,,,314.9495,315.2115,315.2117,317.2105,practice1,f,1,0,30,30,37,1,0,top_right,threatening,no_target,0.5172,,,,,,,,,,,,,,,,,
,,,,,330768,f,y,r,n,14,0,2025-04-06_19h19.01.793,VisualSearchFaces,2024.2.4,Win32,59.17159763,,,,,,,,318.2154,318.4769,318.477,320.4762,practice1,f,1,0,31,31,22,1,0,top_right,neutral,no_target,0.5665,,,,,,,,,,,,,,,,,
,,,,,330768,f,y,r,n,14,0,2025-04-06_19h19.01.793,VisualSearchFaces,2024.2.4,Win32,59.17159763,,,,,,,,321.4808,321.7429,321.7429,323.742,practice1,j,1,0,32,32,19,1,1,bottom_right,threatening,neutral,0.5864,,,,,,,,,,,,,,,,,
,,,,,330768,f,y,r,n,14,0,2025-04-06_19h19.01.793,VisualSearchFaces,2024.2.4,Win32,59.17159763,,,,,,,,324.7477,324.9924,324.9926,326.9912,practice1,f,1,0,33,33,26,1,0,top_left,neutral,no_target,0.4511,,,,,,,,,,,,,,,,,
,,,,,330768,f,y,r,n,14,0,2025-04-06_19h19.01.793,VisualSearchFaces,2024.2.4,Win32,59.17159763,,,,,,,,327.9953,328.2572,328.2574,330.2566,practice1,j,1,0,34,34,6,1,1,top_left,neutral,threatening,0.417,,,,,,,,,,,,,,,,,
,,,,,330768,f,y,r,n,14,0,2025-04-06_19h19.01.793,VisualSearchFaces,2024.2.4,Win32,59.17159763,,,,,,,,331.2611,331.5237,331.5239,333.523,practice1,,0,0,35,35,15,1,1,centre,threatening,neutral,,,,,,,,,,,,,,,,,,
,,,,,330768,f,y,r,n,14,0,2025-04-06_19h19.01.793,VisualSearchFaces,2024.2.4,Win32,59.17159763,,,,,,,,334.5272,334.7888,334.789,336.7881,practice1,f,0,0,36,36,16,1,1,top_left,threatening,neutral,0.9529,,,,,,,,,,,,,,,,,
,,,,,330768,f,y,r,n,14,0,2025-04-06_19h19.01.793,VisualSearchFaces,2024.2.4,Win32,59.17159763,,,,,,,,337.7946,338.047,338.047,340.037,practice1,j,1,0,37,37,5,1,1,centre,neutral,threatening,1.4008,,,,,,,,,,,,,,,,,
,,,,,330768,f,y,r,n,14,0,2025-04-06_19h19.01.793,VisualSearchFaces,2024.2.4,Win32,59.17159763,,,,,,,,341.0424,341.3039,341.304,343.303,practice1,j,1,0,38,38,7,1,1,top_right,neutral,threatening,0.686,,,,,,,,,,,,,,,,,
,,,,,330768,f,y,r,n,14,0,2025-04-06_19h19.01.793,VisualSearchFaces,2024.2.4,Win32,59.17159763,,,,,,,,344.3079,344.5695,344.5696,346.5686,practice1,j,1,0,39,39,4,1,1,bottom_right,neutral,friendly,0.3677,,,,,,,,,,,,,,,,,
,,,,,330768,f,y,r,n,14,0,2025-04-06_19h19.01.793,VisualSearchFaces,2024.2.4,Win32,59.17159763,,,403.3942,407.9344,space,4.5038,,408.9393,409.0514,409.0516,411.0501,practice2,f,1,0,0,0,26,1,0,top_left,neutral,no_target,1.5996,,346.5707,403.387,space,56.7833,,,,,,,,,,,,
,,,,,330768,f,y,r,n,14,0,2025-04-06_19h19.01.793,VisualSearchFaces,2024.2.4,Win32,59.17159763,,,,,,,,412.055,412.1658,412.1659,414.1657,practice2,f,1,0,1,1,21,1,0,top_left,neutral,no_target,0.4497,,,,,,,,,,,,,,,,,
,,,,,330768,f,y,r,n,14,0,2025-04-06_19h19.01.793,VisualSearchFaces,2024.2.4,Win32,59.17159763,,,,,,,,415.1773,415.282,415.2822,417.2811,practice2,j,1,0,2,2,7,1,1,top_right,neutral,threatening,0.4033,,,,,,,,,,,,,,,,,
,,,,,330768,f,y,r,n,14,0,2025-04-06_19h19.01.793,VisualSearchFaces,2024.2.4,Win32,59.17159763,,,,,,,,418.2858,418.3976,418.3977,420.3968,practice2,j,1,0,3,3,9,1,1,bottom_right,neutral,threatening,0.3338,,,,,,,,,,,,,,,,,
,,,,,330768,f,y,r,n,14,0,2025-04-06_19h19.01.793,VisualSearchFaces,2024.2.4,Win32,59.17159763,,,,,,,,421.4013,421.503,421.503,423.496,practice2,f,0,0,4,4,1,1,1,top_left,neutral,friendly,0.3451,,,,,,,,,,,,,,,,,
,,,,,330768,f,y,r,n,14,0,2025-04-06_19h19.01.793,VisualSearchFaces,2024.2.4,Win32,59.17159763,,,,,,,,424.5004,424.6126,424.6127,426.6119,practice2,f,0,0,5,5,8,1,1,bottom_left,neutral,threatening,0.5182,,,,,,,,,,,,,,,,,
,,,,,330768,f,y,r,n,14,0,2025-04-06_19h19.01.793,VisualSearchFaces,2024.2.4,Win32,59.17159763,,,,,,,,427.616,427.7254,427.7254,429.7285,practice2,j,1,0,6,6,4,1,1,bottom_right,neutral,friendly,0.3222,,,,,,,,,,,,,,,,,
,,,,,330768,f,y,r,n,14,0,2025-04-06_19h19.01.793,VisualSearchFaces,2024.2.4,Win32,59.17159763,,,,,,,,430.7319,430.8288,430.8291,432.8269,practice2,f,1,0,7,7,28,1,0,bottom_left,neutral,no_target,0.6324,,,,,,,,,,,,,,,,,
,,,,,330768,f,y,r,n,14,0,2025-04-06_19h19.01.793,VisualSearchFaces,2024.2.4,Win32,59.17159763,,,,,,,,433.8318,433.93,433.9301,435.9259,practice2,j,0,0,8,8,35,1,0,centre,threatening,no_target,1.5468,,,,,,,,,,,,,,,,,
,,,,,330768,f,y,r,n,14,0,2025-04-06_19h19.01.793,VisualSearchFaces,2024.2.4,Win32,59.17159763,,,,,,,,436.941,437.0421,437.0421,439.0412,practice2,j,1,0,9,9,11,1,1,top_left,friendly,neutral,1.0356,,,,,,,,,,,,,,,,,
,,,,,330768,f,y,r,n,14,0,2025-04-06_19h19.01.793,VisualSearchFaces,2024.2.4,Win32,59.17159763,,,,,,,,440.0465,440.1427,440.1428,442.1405,practice2,j,1,0,10,10,10,1,1,centre,friendly,neutral,1.2667,,,,,,,,,,,,,,,,,
,,,,,330768,f,y,r,n,14,0,2025-04-06_19h19.01.793,VisualSearchFaces,2024.2.4,Win32,59.17159763,,,,,,,,443.1456,443.2575,443.2577,445.2567,practice2,j,1,0,11,11,18,1,1,bottom_left,threatening,neutral,0.7682,,,,,,,,,,,,,,,,,
,,,,,330768,f,y,r,n,14,0,2025-04-06_19h19.01.793,VisualSearchFaces,2024.2.4,Win32,59.17159763,,,,,,,,446.2611,446.3725,446.3728,448.3724,practice2,j,1,0,12,12,5,1,1,centre,neutral,threatening,1.1171,,,,,,,,,,,,,,,,,
,,,,,330768,f,y,r,n,14,0,2025-04-06_19h19.01.793,VisualSearchFaces,2024.2.4,Win32,59.17159763,,,,,,,,449.3766,449.4892,449.4893,451.4881,practice2,j,1,0,13,13,14,1,1,bottom_right,friendly,neutral,0.6199,,,,,,,,,,,,,,,,,
,,,,,330768,f,y,r,n,14,0,2025-04-06_19h19.01.793,VisualSearchFaces,2024.2.4,Win32,59.17159763,,,,,,,,452.4922,452.5951,452.5952,454.5871,practice2,f,1,0,14,14,22,1,0,top_right,neutral,no_target,0.5598,,,,,,,,,,,,,,,,,
,,,,,330768,f,y,r,n,14,0,2025-04-06_19h19.01.793,VisualSearchFaces,2024.2.4,Win32,59.17159763,,,,,,,,455.5912,455.7033,455.7036,457.703,practice2,f,1,0,15,15,20,1,0,centre,neutral,no_target,0.6012,,,,,,,,,,,,,,,,,
,,,,,330768,f,y,r,n,14,0,2025-04-06_19h19.01.793,VisualSearchFaces,2024.2.4,Win32,59.17159763,,,,,,,,458.7074,458.8077,458.8077,460.8021,practice2,f,1,0,16,16,32,1,0,top_right,friendly,no_target,1.9611,,,,,,,,,,,,,,,,,
,,,,,330768,f,y,r,n,14,0,2025-04-06_19h19.01.793,VisualSearchFaces,2024.2.4,Win32,59.17159763,,,,,,,,461.8061,461.9187,461.9188,463.9177,practice2,f,1,0,17,17,23,1,0,bottom_left,neutral,no_target,0.7171,,,,,,,,,,,,,,,,,
,,,,,330768,f,y,r,n,14,0,2025-04-06_19h19.01.793,VisualSearchFaces,2024.2.4,Win32,59.17159763,,,,,,,,464.9225,465.0338,465.0339,467.0338,practice2,j,0,0,18,18,30,1,0,centre,friendly,no_target,0.8667,,,,,,,,,,,,,,,,,
,,,,,330768,f,y,r,n,14,0,2025-04-06_19h19.01.793,VisualSearchFaces,2024.2.4,Win32,59.17159763,,,,,,,,468.0386,468.1508,468.1509,470.1492,practice2,f,1,0,19,19,27,1,0,top_right,neutral,no_target,0.7992,,,,,,,,,,,,,,,,,
,,,,,330768,f,y,r,n,14,0,2025-04-06_19h19.01.793,VisualSearchFaces,2024.2.4,Win32,59.17159763,,,,,,,,471.154,471.2653,471.2654,473.2652,practice2,j,1,0,20,20,12,1,1,top_right,friendly,neutral,0.9326,,,,,,,,,,,,,,,,,
,,,,,330768,f,y,r,n,14,0,2025-04-06_19h19.01.793,VisualSearchFaces,2024.2.4,Win32,59.17159763,,,,,,,,474.2699,474.3812,474.3814,476.381,practice2,j,1,0,21,21,6,1,1,top_left,neutral,threatening,0.567,,,,,,,,,,,,,,,,,
,,,,,330768,f,y,r,n,14,0,2025-04-06_19h19.01.793,VisualSearchFaces,2024.2.4,Win32,59.17159763,,,,,,,,477.3859,477.4971,477.4972,479.4965,practice2,j,1,0,22,22,2,1,1,top_right,neutral,friendly,0.4003,,,,,,,,,,,,,,,,,
,,,,,330768,f,y,r,n,14,0,2025-04-06_19h19.01.793,VisualSearchFaces,2024.2.4,Win32,59.17159763,,,,,,,,480.5012,480.6133,480.6134,482.6125,practice2,j,1,0,23,23,16,1,1,top_left,threatening,neutral,0.4836,,,,,,,,,,,,,,,,,
,,,,,330768,f,y,r,n,14,0,2025-04-06_19h19.01.793,VisualSearchFaces,2024.2.4,Win32,59.17159763,,,,,,,,483.6167,483.7293,483.7293,485.7282,practice2,j,1,0,24,24,13,1,1,bottom_left,friendly,neutral,0.4842,,,,,,,,,,,,,,,,,
,,,,,330768,f,y,r,n,14,0,2025-04-06_19h19.01.793,VisualSearchFaces,2024.2.4,Win32,59.17159763,,,,,,,,486.7329,486.8445,486.8447,488.8442,practice2,j,0,0,25,25,36,1,0,top_left,threatening,no_target,0.4513,,,,,,,,,,,,,,,,,
,,,,,330768,f,y,r,n,14,0,2025-04-06_19h19.01.793,VisualSearchFaces,2024.2.4,Win32,59.17159763,,,,,,,,489.8507,489.9438,489.9439,491.9431,practice2,j,0,0,26,26,39,1,0,bottom_right,threatening,no_target,0.937,,,,,,,,,,,,,,,,,
,,,,,330768,f,y,r,n,14,0,2025-04-06_19h19.01.793,VisualSearchFaces,2024.2.4,Win32,59.17159763,,,,,,,,492.9476,493.0595,493.0596,495.0591,practice2,j,1,0,27,27,15,1,1,centre,threatening,neutral,0.3672,,,,,,,,,,,,,,,,,
,,,,,330768,f,y,r,n,14,0,2025-04-06_19h19.01.793,VisualSearchFaces,2024.2.4,Win32,59.17159763,,,,,,,,496.0628,496.1748,496.175,498.1743,practice2,j,1,0,28,28,17,1,1,top_right,threatening,neutral,0.4024,,,,,,,,,,,,,,,,,
,,,,,330768,f,y,r,n,14,0,2025-04-06_19h19.01.793,VisualSearchFaces,2024.2.4,Win32,59.17159763,,,,,,,,499.179,499.2762,499.2762,501.2736,practice2,f,1,0,29,29,34,1,0,bottom_right,friendly,no_target,0.7987,,,,,,,,,,,,,,,,,
,,,,,330768,f,y,r,n,14,0,2025-04-06_19h19.01.793,VisualSearchFaces,2024.2.4,Win32,59.17159763,,,,,,,,502.2783,502.3903,502.3903,504.3896,practice2,f,1,0,30,30,33,1,0,bottom_left,friendly,no_target,1.9343,,,,,,,,,,,,,,,,,
,,,,,330768,f,y,r,n,14,0,2025-04-06_19h19.01.793,VisualSearchFaces,2024.2.4,Win32,59.17159763,,,,,,,,505.3942,505.4932,505.4933,507.4886,practice2,j,0,0,31,31,29,1,0,bottom_right,neutral,no_target,0.5624,,,,,,,,,,,,,,,,,
,,,,,330768,f,y,r,n,14,0,2025-04-06_19h19.01.793,VisualSearchFaces,2024.2.4,Win32,59.17159763,,,,,,,,508.5032,508.6045,508.6045,510.6046,practice2,j,0,0,32,32,37,1,0,top_right,threatening,no_target,0.6676,,,,,,,,,,,,,,,,,
,,,,,330768,f,y,r,n,14,0,2025-04-06_19h19.01.793,VisualSearchFaces,2024.2.4,Win32,59.17159763,,,,,,,,511.6086,511.7211,511.7213,513.72,practice2,j,0,0,33,33,31,1,0,top_left,friendly,no_target,0.7698,,,,,,,,,,,,,,,,,
,,,,,330768,f,y,r,n,14,0,2025-04-06_19h19.01.793,VisualSearchFaces,2024.2.4,Win32,59.17159763,,,,,,,,514.7251,514.8364,514.8365,516.8361,practice2,f,1,0,34,34,38,1,0,bottom_left,threatening,no_target,0.7832,,,,,,,,,,,,,,,,,
,,,,,330768,f,y,r,n,14,0,2025-04-06_19h19.01.793,VisualSearchFaces,2024.2.4,Win32,59.17159763,,,,,,,,517.8403,517.9522,517.9523,519.9525,practice2,j,1,0,35,35,19,1,1,bottom_right,threatening,neutral,0.4844,,,,,,,,,,,,,,,,,
,,,,,330768,f,y,r,n,14,0,2025-04-06_19h19.01.793,VisualSearchFaces,2024.2.4,Win32,59.17159763,,,,,,,,520.9559,521.0678,521.0679,523.0672,practice2,j,1,0,36,36,3,1,1,bottom_left,neutral,friendly,0.8342,,,,,,,,,,,,,,,,,
,,,,,330768,f,y,r,n,14,0,2025-04-06_19h19.01.793,VisualSearchFaces,2024.2.4,Win32,59.17159763,,,,,,,,524.0718,524.1838,524.1839,526.1835,practice2,j,1,0,37,37,0,1,1,centre,neutral,friendly,0.3837,,,,,,,,,,,,,,,,,
,,,,,330768,f,y,r,n,14,0,2025-04-06_19h19.01.793,VisualSearchFaces,2024.2.4,Win32,59.17159763,,,,,,,,527.1876,527.2993,527.2994,529.299,practice2,f,1,0,38,38,25,1,0,centre,neutral,no_target,0.8011,,,,,,,,,,,,,,,,,
,,,,,330768,f,y,r,n,14,0,2025-04-06_19h19.01.793,VisualSearchFaces,2024.2.4,Win32,59.17159763,,,,,,,,530.3036,530.4153,530.4155,532.4147,practice2,f,1,0,39,39,24,1,0,bottom_right,neutral,no_target,0.6343,,,,,,,,,,,,,,,,,
,,,,,330768,f,y,r,n,14,0,2025-04-06_19h19.01.793,VisualSearchFaces,2024.2.4,Win32,59.17159763,,,642.9569,647.4813,space,4.4901,,648.4855,648.5818,648.582,650.5804,block1,f,1,0,0,0,22,1,0,top_right,neutral,no_target,1.1501,,532.4192,642.9512,space,110.5052,,,,,,,,,,,,
,,,,,330768,f,y,r,n,14,0,2025-04-06_19h19.01.793,VisualSearchFaces,2024.2.4,Win32,59.17159763,,,,,,,,651.5853,651.6971,651.6973,653.6961,block1,f,1,0,1,1,27,1,0,top_right,neutral,no_target,0.4004,,,,,,,,,,,,,,,,,
,,,,,330768,f,y,r,n,14,0,2025-04-06_19h19.01.793,VisualSearchFaces,2024.2.4,Win32,59.17159763,,,,,,,,654.7006,654.8126,654.8128,656.8117,block1,j,1,0,2,2,10,1,1,centre,friendly,neutral,0.5341,,,,,,,,,,,,,,,,,
,,,,,330768,f,y,r,n,14,0,2025-04-06_19h19.01.793,VisualSearchFaces,2024.2.4,Win32,59.17159763,,,,,,,,657.8163,657.9287,657.9288,659.9275,block1,j,1,0,3,3,19,1,1,bottom_right,threatening,neutral,0.5502,,,,,,,,,,,,,,,,,
,,,,,330768,f,y,r,n,14,0,2025-04-06_19h19.01.793,VisualSearchFaces,2024.2.4,Win32,59.17159763,,,,,,,,660.9322,661.0444,661.0445,663.044,block1,j,1,0,4,4,16,1,1,top_left,threatening,neutral,0.4508,,,,,,,,,,,,,,,,,
,,,,,330768,f,y,r,n,14,0,2025-04-06_19h19.01.793,VisualSearchFaces,2024.2.4,Win32,59.17159763,,,,,,,,664.0476,664.1599,664.16,666.1591,block1,j,0,0,5,5,35,1,0,centre,threatening,no_target,0.3527,,,,,,,,,,,,,,,,,
,,,,,330768,f,y,r,n,14,0,2025-04-06_19h19.01.793,VisualSearchFaces,2024.2.4,Win32,59.17159763,,,,,,,,667.164,667.2753,667.2755,669.2751,block1,f,1,0,6,6,21,1,0,top_left,neutral,no_target,0.7268,,,,,,,,,,,,,,,,,
,,,,,330768,f,y,r,n,14,0,2025-04-06_19h19.01.793,VisualSearchFaces,2024.2.4,Win32,59.17159763,,,,,,,,670.2788,670.3915,670.3916,672.3908,block1,f,1,0,7,7,24,1,0,bottom_right,neutral,no_target,0.8697,,,,,,,,,,,,,,,,,
,,,,,330768,f,y,r,n,14,0,2025-04-06_19h19.01.793,VisualSearchFaces,2024.2.4,Win32,59.17159763,,,,,,,,673.3955,673.5068,673.507,675.5064,block1,f,1,0,8,8,37,1,0,top_right,threatening,no_target,0.8844,,,,,,,,,,,,,,,,,
,,,,,330768,f,y,r,n,14,0,2025-04-06_19h19.01.793,VisualSearchFaces,2024.2.4,Win32,59.17159763,,,,,,,,676.5117,676.6063,676.6064,678.6059,block1,j,1,0,9,9,7,1,1,top_right,neutral,threatening,0.5487,,,,,,,,,,,,,,,,,
,,,,,330768,f,y,r,n,14,0,2025-04-06_19h19.01.793,VisualSearchFaces,2024.2.4,Win32,59.17159763,,,,,,,,679.6099,679.7089,679.7089,681.7044,block1,f,1,0,10,10,28,1,0,bottom_left,neutral,no_target,0.48,,,,,,,,,,,,,,,,,
,,,,,330768,f,y,r,n,14,0,2025-04-06_19h19.01.793,VisualSearchFaces,2024.2.4,Win32,59.17159763,,,,,,,,682.7091,682.8215,682.8216,684.8206,block1,f,1,0,11,11,23,1,0,bottom_left,neutral,no_target,0.4674,,,,,,,,,,,,,,,,,
,,,,,330768,f,y,r,n,14,0,2025-04-06_19h19.01.793,VisualSearchFaces,2024.2.4,Win32,59.17159763,,,,,,,,685.8247,685.9214,685.9214,687.9194,block1,j,1,0,12,12,14,1,1,bottom_right,friendly,neutral,0.6001,,,,,,,,,,,,,,,,,
,,,,,330768,f,y,r,n,14,0,2025-04-06_19h19.01.793,VisualSearchFaces,2024.2.4,Win32,59.17159763,,,,,,,,688.9247,689.0358,689.0363,691.0353,block1,f,0,0,13,13,13,1,1,bottom_left,friendly,neutral,0.7009,,,,,,,,,,,,,,,,,
,,,,,330768,f,y,r,n,14,0,2025-04-06_19h19.01.793,VisualSearchFaces,2024.2.4,Win32,59.17159763,,,,,,,,692.0399,692.1519,692.1521,694.151,block1,f,1,0,14,14,31,1,0,top_left,friendly,no_target,0.8175,,,,,,,,,,,,,,,,,
,,,,,330768,f,y,r,n,14,0,2025-04-06_19h19.01.793,VisualSearchFaces,2024.2.4,Win32,59.17159763,,,,,,,,695.1558,695.2639,695.2639,697.2666,block1,j,0,0,15,15,36,1,0,top_left,threatening,no_target,0.8224,,,,,,,,,,,,,,,,,
,,,,,330768,f,y,r,n,14,0,2025-04-06_19h19.01.793,VisualSearchFaces,2024.2.4,Win32,59.17159763,,,,,,,,698.2701,698.3757,698.3757,700.3656,block1,j,1,0,16,16,2,1,1,top_right,neutral,friendly,0.6405,,,,,,,,,,,,,,,,,
,,,,,330768,f,y,r,n,14,0,2025-04-06_19h19.01.793,VisualSearchFaces,2024.2.4,Win32,59.17159763,,,,,,,,701.3739,701.4821,701.4823,703.4815,block1,j,1,0,17,17,17,1,1,top_right,threatening,neutral,0.5536,,,,,,,,,,,,,,,,,
,,,,,330768,f,y,r,n,14,0,2025-04-06_19h19.01.793,VisualSearchFaces,2024.2.4,Win32,59.17159763,,,,,,,,704.4858,704.5977,704.5978,706.5972,block1,j,1,0,18,18,15,1,1,centre,threatening,neutral,0.5163,,,,,,,,,,,,,,,,,
,,,,,330768,f,y,r,n,14,0,2025-04-06_19h19.01.793,VisualSearchFaces,2024.2.4,Win32,59.17159763,,,,,,,,707.6013,707.7134,707.7135,709.7129,block1,f,1,0,19,19,32,1,0,top_right,friendly,no_target,0.6688,,,,,,,,,,,,,,,,,
,,,,,330768,f,y,r,n,14,0,2025-04-06_19h19.01.793,VisualSearchFaces,2024.2.4,Win32,59.17159763,,,,,,,,710.7168,710.8297,710.8298,712.829,block1,f,1,0,20,20,30,1,0,centre,friendly,no_target,0.85,,,,,,,,,,,,,,,,,
,,,,,330768,f,y,r,n,14,0,2025-04-06_19h19.01.793,VisualSearchFaces,2024.2.4,Win32,59.17159763,,,,,,,,713.8331,713.9454,713.9454,715.9443,block1,f,1,0,21,21,29,1,0,bottom_right,neutral,no_target,0.9816,,,,,,,,,,,,,,,,,
,,,,,330768,f,y,r,n,14,0,2025-04-06_19h19.01.793,VisualSearchFaces,2024.2.4,Win32,59.17159763,,,,,,,,716.9481,717.0611,717.0611,719.0605,block1,f,1,0,22,22,26,1,0,top_left,neutral,no_target,0.4178,,,,,,,,,,,,,,,,,
,,,,,330768,f,y,r,n,14,0,2025-04-06_19h19.01.793,VisualSearchFaces,2024.2.4,Win32,59.17159763,,,,,,,,720.0661,720.1766,720.1766,722.1768,block1,f,1,0,23,23,38,1,0,bottom_left,threatening,no_target,0.5683,,,,,,,,,,,,,,,,,
,,,,,330768,f,y,r,n,14,0,2025-04-06_19h19.01.793,VisualSearchFaces,2024.2.4,Win32,59.17159763,,,,,,,,723.1797,723.2921,723.2922,725.292,block1,f,1,0,24,24,20,1,0,centre,neutral,no_target,0.553,,,,,,,,,,,,,,,,,
,,,,,330768,f,y,r,n,14,0,2025-04-06_19h19.01.793,VisualSearchFaces,2024.2.4,Win32,59.17159763,,,,,,,,726.2964,726.408,726.4082,728.4077,block1,f,1,0,25,25,34,1,0,bottom_right,friendly,no_target,1.0506,,,,,,,,,,,,,,,,,
,,,,,330768,f,y,r,n,14,0,2025-04-06_19h19.01.793,VisualSearchFaces,2024.2.4,Win32,59.17159763,,,,,,,,729.4119,729.5129,729.513,731.5069,block1,j,1,0,26,26,11,1,1,top_left,friendly,neutral,0.5633,,,,,,,,,,,,,,,,,
,,,,,330768,f,y,r,n,14,0,2025-04-06_19h19.01.793,VisualSearchFaces,2024.2.4,Win32,59.17159763,,,,,,,,732.5104,732.6065,732.6067,734.6058,block1,f,0,0,27,27,12,1,1,top_right,friendly,neutral,0.552,,,,,,,,,,,,,,,,,
,,,,,330768,f,y,r,n,14,0,2025-04-06_19h19.01.793,VisualSearchFaces,2024.2.4,Win32,59.17159763,,,,,,,,735.6096,735.7088,735.7088,737.705,block1,j,1,0,28,28,18,1,1,bottom_left,threatening,neutral,1.0635,,,,,,,,,,,,,,,,,
,,,,,330768,f,y,r,n,14,0,2025-04-06_19h19.01.793,VisualSearchFaces,2024.2.4,Win32,59.17159763,,,,,,,,738.7089,738.8211,738.8211,740.8205,block1,j,1,0,29,29,9,1,1,bottom_right,neutral,threatening,0.5854,,,,,,,,,,,,,,,,,
,,,,,330768,f,y,r,n,14,0,2025-04-06_19h19.01.793,VisualSearchFaces,2024.2.4,Win32,59.17159763,,,,,,,,741.8227,741.9369,741.9369,743.9364,block1,j,1,0,30,30,8,1,1,bottom_left,neutral,threatening,0.6517,,,,,,,,,,,,,,,,,
,,,,,330768,f,y,r,n,14,0,2025-04-06_19h19.01.793,VisualSearchFaces,2024.2.4,Win32,59.17159763,,,,,,,,744.9405,745.0389,745.039,747.0357,block1,j,1,0,31,31,3,1,1,bottom_left,neutral,friendly,0.5989,,,,,,,,,,,,,,,,,
,,,,,330768,f,y,r,n,14,0,2025-04-06_19h19.01.793,VisualSearchFaces,2024.2.4,Win32,59.17159763,,,,,,,,748.0393,748.1519,748.1519,750.1513,block1,j,1,0,32,32,6,1,1,top_left,neutral,threatening,0.5425,,,,,,,,,,,,,,,,,
,,,,,330768,f,y,r,n,14,0,2025-04-06_19h19.01.793,VisualSearchFaces,2024.2.4,Win32,59.17159763,,,,,,,,751.1554,751.2575,751.2575,753.2507,block1,f,1,0,33,33,39,1,0,bottom_right,threatening,no_target,0.6096,,,,,,,,,,,,,,,,,
,,,,,330768,f,y,r,n,14,0,2025-04-06_19h19.01.793,VisualSearchFaces,2024.2.4,Win32,59.17159763,,,,,,,,754.2554,754.3673,754.3675,756.3664,block1,j,1,0,34,34,4,1,1,bottom_right,neutral,friendly,0.6002,,,,,,,,,,,,,,,,,
,,,,,330768,f,y,r,n,14,0,2025-04-06_19h19.01.793,VisualSearchFaces,2024.2.4,Win32,59.17159763,,,,,,,,757.3707,757.4827,757.4828,759.4822,block1,f,1,0,35,35,25,1,0,centre,neutral,no_target,0.5182,,,,,,,,,,,,,,,,,
,,,,,330768,f,y,r,n,14,0,2025-04-06_19h19.01.793,VisualSearchFaces,2024.2.4,Win32,59.17159763,,,,,,,,760.4856,760.5926,760.5927,762.5818,block1,j,1,0,36,36,5,1,1,centre,neutral,threatening,0.3346,,,,,,,,,,,,,,,,,
,,,,,330768,f,y,r,n,14,0,2025-04-06_19h19.01.793,VisualSearchFaces,2024.2.4,Win32,59.17159763,,,,,,,,763.5857,763.6976,763.6977,765.6969,block1,j,1,0,37,37,0,1,1,centre,neutral,friendly,0.2688,,,,,,,,,,,,,,,,,
,,,,,330768,f,y,r,n,14,0,2025-04-06_19h19.01.793,VisualSearchFaces,2024.2.4,Win32,59.17159763,,,,,,,,766.7018,766.8096,766.8096,768.8129,block1,f,1,0,38,38,33,1,0,bottom_left,friendly,no_target,0.574,,,,,,,,,,,,,,,,,
,,,,,330768,f,y,r,n,14,0,2025-04-06_19h19.01.793,VisualSearchFaces,2024.2.4,Win32,59.17159763,,,,,,,,769.8173,769.92,769.92,771.9117,block1,j,1,0,39,39,1,1,1,top_left,neutral,friendly,0.4761,,,,,,,,,,,,,,,,,
,,,,,330768,f,y,r,n,14,0,2025-04-06_19h19.01.793,VisualSearchFaces,2024.2.4,Win32,59.17159763,,,,,,,,772.9158,773.0281,773.0283,775.0274,block1,j,1,1,0,40,18,1,1,bottom_left,threatening,neutral,0.7336,,,,,,,,,,,,,,,,,
,,,,,330768,f,y,r,n,14,0,2025-04-06_19h19.01.793,VisualSearchFaces,2024.2.4,Win32,59.17159763,,,,,,,,776.0323,776.1445,776.1447,778.1442,block1,f,1,1,1,41,26,1,0,top_left,neutral,no_target,0.7015,,,,,,,,,,,,,,,,,
,,,,,330768,f,y,r,n,14,0,2025-04-06_19h19.01.793,VisualSearchFaces,2024.2.4,Win32,59.17159763,,,,,,,,779.1486,779.2601,779.2601,781.2594,block1,f,1,1,2,42,35,1,0,centre,threatening,no_target,0.6663,,,,,,,,,,,,,,,,,
,,,,,330768,f,y,r,n,14,0,2025-04-06_19h19.01.793,VisualSearchFaces,2024.2.4,Win32,59.17159763,,,,,,,,782.2639,782.3753,782.3753,784.3751,block1,j,1,1,3,43,2,1,1,top_right,neutral,friendly,0.3542,,,,,,,,,,,,,,,,,
,,,,,330768,f,y,r,n,14,0,2025-04-06_19h19.01.793,VisualSearchFaces,2024.2.4,Win32,59.17159763,,,,,,,,785.3788,785.4919,785.492,787.4911,block1,f,1,1,4,44,36,1,0,top_left,threatening,no_target,0.4505,,,,,,,,,,,,,,,,,
,,,,,330768,f,y,r,n,14,0,2025-04-06_19h19.01.793,VisualSearchFaces,2024.2.4,Win32,59.17159763,,,,,,,,788.4956,788.6069,788.6071,790.6064,block1,f,1,1,5,45,22,1,0,top_right,neutral,no_target,0.5669,,,,,,,,,,,,,,,,,
,,,,,330768,f,y,r,n,14,0,2025-04-06_19h19.01.793,VisualSearchFaces,2024.2.4,Win32,59.17159763,,,,,,,,791.6108,791.7066,791.7067,793.7056,block1,j,1,1,6,46,11,1,1,top_left,friendly,neutral,0.4176,,,,,,,,,,,,,,,,,
,,,,,330768,f,y,r,n,14,0,2025-04-06_19h19.01.793,VisualSearchFaces,2024.2.4,Win32,59.17159763,,,,,,,,794.7096,794.8186,794.8187,796.8216,block1,j,1,1,7,47,4,1,1,bottom_right,neutral,friendly,0.4889,,,,,,,,,,,,,,,,,
,,,,,330768,f,y,r,n,14,0,2025-04-06_19h19.01.793,VisualSearchFaces,2024.2.4,Win32,59.17159763,,,,,,,,797.8257,797.9339,797.9339,799.9372,block1,j,1,1,8,48,7,1,1,top_right,neutral,threatening,0.5389,,,,,,,,,,,,,,,,,
,,,,,330768,f,y,r,n,14,0,2025-04-06_19h19.01.793,VisualSearchFaces,2024.2.4,Win32,59.17159763,,,,,,,,800.9423,801.0531,801.0533,803.0531,block1,j,0,1,9,49,33,1,0,bottom_left,friendly,no_target,0.4512,,,,,,,,,,,,,,,,,
,,,,,330768,f,y,r,n,14,0,2025-04-06_19h19.01.793,VisualSearchFaces,2024.2.4,Win32,59.17159763,,,,,,,,804.0573,804.1686,804.1687,806.1684,block1,f,1,1,10,50,28,1,0,bottom_left,neutral,no_target,0.5673,,,,,,,,,,,,,,,,,
,,,,,330768,f,y,r,n,14,0,2025-04-06_19h19.01.793,VisualSearchFaces,2024.2.4,Win32,59.17159763,,,,,,,,807.1732,807.2751,807.2751,809.2674,block1,j,1,1,11,51,13,1,1,bottom_left,friendly,neutral,0.544,,,,,,,,,,,,,,,,,
,,,,,330768,f,y,r,n,14,0,2025-04-06_19h19.01.793,VisualSearchFaces,2024.2.4,Win32,59.17159763,,,,,,,,810.2731,810.384,810.3841,812.3838,block1,j,1,1,12,52,1,1,1,top_left,neutral,friendly,0.4169,,,,,,,,,,,,,,,,,
,,,,,330768,f,y,r,n,14,0,2025-04-06_19h19.01.793,VisualSearchFaces,2024.2.4,Win32,59.17159763,,,,,,,,813.3889,813.4997,813.4999,815.4997,block1,j,1,1,13,53,3,1,1,bottom_left,neutral,friendly,0.6177,,,,,,,,,,,,,,,,,
,,,,,330768,f,y,r,n,14,0,2025-04-06_19h19.01.793,VisualSearchFaces,2024.2.4,Win32,59.17159763,,,,,,,,816.5036,816.6108,816.6108,818.6149,block1,f,1,1,14,54,30,1,0,centre,friendly,no_target,0.7031,,,,,,,,,,,,,,,,,
,,,,,330768,f,y,r,n,14,0,2025-04-06_19h19.01.793,VisualSearchFaces,2024.2.4,Win32,59.17159763,,,,,,,,819.6035,819.7146,819.7147,821.7142,block1,f,1,1,15,55,20,1,0,centre,neutral,no_target,0.8174,,,,,,,,,,,,,,,,,
,,,,,330768,f,y,r,n,14,0,2025-04-06_19h19.01.793,VisualSearchFaces,2024.2.4,Win32,59.17159763,,,,,,,,822.7188,822.8314,822.8315,824.8298,block1,f,1,1,16,56,34,1,0,bottom_right,friendly,no_target,0.7325,,,,,,,,,,,,,,,,,
,,,,,330768,f,y,r,n,14,0,2025-04-06_19h19.01.793,VisualSearchFaces,2024.2.4,Win32,59.17159763,,,,,,,,825.8345,825.9466,825.9466,827.9457,block1,j,0,1,17,57,39,1,0,bottom_right,threatening,no_target,0.6004,,,,,,,,,,,,,,,,,
,,,,,330768,f,y,r,n,14,0,2025-04-06_19h19.01.793,VisualSearchFaces,2024.2.4,Win32,59.17159763,,,,,,,,828.9497,829.062,829.0621,831.0614,block1,f,1,1,18,58,38,1,0,bottom_left,threatening,no_target,1.0533,,,,,,,,,,,,,,,,,
,,,,,330768,f,y,r,n,14,0,2025-04-06_19h19.01.793,VisualSearchFaces,2024.2.4,Win32,59.17159763,,,,,,,,832.0658,832.1776,832.1777,834.1774,block1,j,1,1,19,59,14,1,1,bottom_right,friendly,neutral,0.4512,,,,,,,,,,,,,,,,,
,,,,,330768,f,y,r,n,14,0,2025-04-06_19h19.01.793,VisualSearchFaces,2024.2.4,Win32,59.17159763,,,,,,,,835.1814,835.277,835.2771,837.276,block1,f,0,1,20,60,16,1,1,top_left,threatening,neutral,0.6699,,,,,,,,,,,,,,,,,
,,,,,330768,f,y,r,n,14,0,2025-04-06_19h19.01.793,VisualSearchFaces,2024.2.4,Win32,59.17159763,,,,,,,,838.2796,838.3922,838.3922,840.392,block1,j,1,1,21,61,9,1,1,bottom_right,neutral,threatening,0.3345,,,,,,,,,,,,,,,,,
,,,,,330768,f,y,r,n,14,0,2025-04-06_19h19.01.793,VisualSearchFaces,2024.2.4,Win32,59.17159763,,,,,,,,841.3965,841.5085,841.5086,843.5078,block1,j,1,1,22,62,15,1,1,centre,threatening,neutral,0.3836,,,,,,,,,,,,,,,,,
,,,,,330768,f,y,r,n,14,0,2025-04-06_19h19.01.793,VisualSearchFaces,2024.2.4,Win32,59.17159763,,,,,,,,844.5123,844.6243,844.6244,846.6234,block1,j,1,1,23,63,6,1,1,top_left,neutral,threatening,0.3507,,,,,,,,,,,,,,,,,
,,,,,330768,f,y,r,n,14,0,2025-04-06_19h19.01.793,VisualSearchFaces,2024.2.4,Win32,59.17159763,,,,,,,,847.6283,847.7396,847.7397,849.7392,block1,f,1,1,24,64,29,1,0,bottom_right,neutral,no_target,0.6189,,,,,,,,,,,,,,,,,
,,,,,330768,f,y,r,n,14,0,2025-04-06_19h19.01.793,VisualSearchFaces,2024.2.4,Win32,59.17159763,,,,,,,,850.7444,850.8555,850.8558,852.855,block1,f,1,1,25,65,24,1,0,bottom_right,neutral,no_target,0.5765,,,,,,,,,,,,,,,,,
,,,,,330768,f,y,r,n,14,0,2025-04-06_19h19.01.793,VisualSearchFaces,2024.2.4,Win32,59.17159763,,,,,,,,853.8597,853.9715,853.9716,855.9708,block1,f,0,1,26,66,12,1,1,top_right,friendly,neutral,1.2008,,,,,,,,,,,,,,,,,
,,,,,330768,f,y,r,n,14,0,2025-04-06_19h19.01.793,VisualSearchFaces,2024.2.4,Win32,59.17159763,,,,,,,,856.9745,857.0869,857.0869,859.0886,block1,j,1,1,27,67,8,1,1,bottom_left,neutral,threatening,0.5501,,,,,,,,,,,,,,,,,
,,,,,330768,f,y,r,n,14,0,2025-04-06_19h19.01.793,VisualSearchFaces,2024.2.4,Win32,59.17159763,,,,,,,,860.0898,860.203,860.2031,862.2025,block1,j,0,1,28,68,32,1,0,top_right,friendly,no_target,0.4005,,,,,,,,,,,,,,,,,
,,,,,330768,f,y,r,n,14,0,2025-04-06_19h19.01.793,VisualSearchFaces,2024.2.4,Win32,59.17159763,,,,,,,,863.2067,863.3188,863.3189,865.3183,block1,j,0,1,29,69,27,1,0,top_right,neutral,no_target,1.1546,,,,,,,,,,,,,,,,,
,,,,,330768,f,y,r,n,14,0,2025-04-06_19h19.01.793,VisualSearchFaces,2024.2.4,Win32,59.17159763,,,,,,,,866.3225,866.4347,866.4348,868.4337,block1,j,1,1,30,70,17,1,1,top_right,threatening,neutral,1.5337,,,,,,,,,,,,,,,,,
,,,,,330768,f,y,r,n,14,0,2025-04-06_19h19.01.793,VisualSearchFaces,2024.2.4,Win32,59.17159763,,,,,,,,869.4381,869.5505,869.5507,871.5494,block1,f,1,1,31,71,25,1,0,centre,neutral,no_target,0.8666,,,,,,,,,,,,,,,,,
,,,,,330768,f,y,r,n,14,0,2025-04-06_19h19.01.793,VisualSearchFaces,2024.2.4,Win32,59.17159763,,,,,,,,872.5544,872.6659,872.6661,874.6653,block1,j,0,1,32,72,37,1,0,top_right,threatening,no_target,0.5672,,,,,,,,,,,,,,,,,
,,,,,330768,f,y,r,n,14,0,2025-04-06_19h19.01.793,VisualSearchFaces,2024.2.4,Win32,59.17159763,,,,,,,,875.6694,875.7815,875.7816,877.7809,block1,j,1,1,33,73,0,1,1,centre,neutral,friendly,0.5177,,,,,,,,,,,,,,,,,
,,,,,330768,f,y,r,n,14,0,2025-04-06_19h19.01.793,VisualSearchFaces,2024.2.4,Win32,59.17159763,,,,,,,,878.7855,878.8978,878.898,880.8965,block1,j,1,1,34,74,5,1,1,centre,neutral,threatening,0.4503,,,,,,,,,,,,,,,,,
,,,,,330768,f,y,r,n,14,0,2025-04-06_19h19.01.793,VisualSearchFaces,2024.2.4,Win32,59.17159763,,,,,,,,881.9013,882.0135,882.0136,884.0127,block1,j,1,1,35,75,10,1,1,centre,friendly,neutral,0.5005,,,,,,,,,,,,,,,,,
,,,,,330768,f,y,r,n,14,0,2025-04-06_19h19.01.793,VisualSearchFaces,2024.2.4,Win32,59.17159763,,,,,,,,885.0174,885.1287,885.1287,887.128,block1,j,1,1,36,76,19,1,1,bottom_right,threatening,neutral,0.5501,,,,,,,,,,,,,,,,,
,,,,,330768,f,y,r,n,14,0,2025-04-06_19h19.01.793,VisualSearchFaces,2024.2.4,Win32,59.17159763,,,,,,,,888.133,888.2447,888.2448,890.2443,block1,f,1,1,37,77,21,1,0,top_left,neutral,no_target,0.6333,,,,,,,,,,,,,,,,,
,,,,,330768,f,y,r,n,14,0,2025-04-06_19h19.01.793,VisualSearchFaces,2024.2.4,Win32,59.17159763,,,,,,,,891.2482,891.3501,891.3502,893.3431,block1,j,0,1,38,78,31,1,0,top_left,friendly,no_target,0.5967,,,,,,,,,,,,,,,,,
,,,,,330768,f,y,r,n,14,0,2025-04-06_19h19.01.793,VisualSearchFaces,2024.2.4,Win32,59.17159763,,,,,,,,894.3474,894.4598,894.4599,896.4591,block1,j,0,1,39,79,23,1,0,bottom_left,neutral,no_target,0.5171,,,,,,,,,,,,,,,,,
,,,,,330768,f,y,r,n,14,0,2025-04-06_19h19.01.793,VisualSearchFaces,2024.2.4,Win32,59.17159763,,,959.1626,962.5772,space,3.3868,,963.5748,963.686,963.686,965.6889,block2,,0,0,0,0,19,1,1,bottom_right,threatening,neutral,,,896.4638,959.1575,space,62.665,,,,,,,,,,,,
,,,,,330768,f,y,r,n,14,0,2025-04-06_19h19.01.793,VisualSearchFaces,2024.2.4,Win32,59.17159763,,,,,,,,966.6936,966.805,966.8052,968.8044,block2,f,1,0,1,1,30,1,0,centre,friendly,no_target,0.9178,,,,,,,,,,,,,,,,,
,,,,,330768,f,y,r,n,14,0,2025-04-06_19h19.01.793,VisualSearchFaces,2024.2.4,Win32,59.17159763,,,,,,,,969.8091,969.9109,969.9109,971.9036,block2,j,1,0,2,2,7,1,1,top_right,neutral,threatening,0.8464,,,,,,,,,,,,,,,,,
,,,,,330768,f,y,r,n,14,0,2025-04-06_19h19.01.793,VisualSearchFaces,2024.2.4,Win32,59.17159763,,,,,,,,972.9077,973.0202,973.0203,975.0194,block2,f,1,0,3,3,22,1,0,top_right,neutral,no_target,0.4375,,,,,,,,,,,,,,,,,
,,,,,330768,f,y,r,n,14,0,2025-04-06_19h19.01.793,VisualSearchFaces,2024.2.4,Win32,59.17159763,,,,,,,,976.0244,976.136,976.1362,978.1352,block2,j,1,0,4,4,10,1,1,centre,friendly,neutral,0.4848,,,,,,,,,,,,,,,,,
,,,,,330768,f,y,r,n,14,0,2025-04-06_19h19.01.793,VisualSearchFaces,2024.2.4,Win32,59.17159763,,,,,,,,979.1402,979.2514,979.2515,981.251,block2,f,1,0,5,5,37,1,0,top_right,threatening,no_target,0.9667,,,,,,,,,,,,,,,,,
,,,,,330768,f,y,r,n,14,0,2025-04-06_19h19.01.793,VisualSearchFaces,2024.2.4,Win32,59.17159763,,,,,,,,982.2553,982.3671,982.3672,984.3667,block2,j,1,0,6,6,15,1,1,centre,threatening,neutral,0.6164,,,,,,,,,,,,,,,,,
,,,,,330768,f,y,r,n,14,0,2025-04-06_19h19.01.793,VisualSearchFaces,2024.2.4,Win32,59.17159763,,,,,,,,985.371,985.4827,985.4828,987.4827,block2,j,1,0,7,7,8,1,1,bottom_left,neutral,threatening,0.8323,,,,,,,,,,,,,,,,,
,,,,,330768,f,y,r,n,14,0,2025-04-06_19h19.01.793,VisualSearchFaces,2024.2.4,Win32,59.17159763,,,,,,,,988.487,988.5988,988.599,990.5981,block2,j,1,0,8,8,1,1,1,top_left,neutral,friendly,0.5508,,,,,,,,,,,,,,,,,
,,,,,330768,f,y,r,n,14,0,2025-04-06_19h19.01.793,VisualSearchFaces,2024.2.4,Win32,59.17159763,,,,,,,,991.6015,991.6981,991.6982,993.6971,block2,j,1,0,9,9,0,1,1,centre,neutral,friendly,0.3679,,,,,,,,,,,,,,,,,
,,,,,330768,f,y,r,n,14,0,2025-04-06_19h19.01.793,VisualSearchFaces,2024.2.4,Win32,59.17159763,,,,,,,,994.7027,994.8133,994.8133,996.8129,block2,f,1,0,10,10,35,1,0,centre,threatening,no_target,0.5863,,,,,,,,,,,,,,,,,
,,,,,330768,f,y,r,n,14,0,2025-04-06_19h19.01.793,VisualSearchFaces,2024.2.4,Win32,59.17159763,,,,,,,,997.8177,997.9292,997.9293,999.9289,block2,f,1,0,11,11,29,1,0,bottom_right,neutral,no_target,0.5169,,,,,,,,,,,,,,,,,
,,,,,330768,f,y,r,n,14,0,2025-04-06_19h19.01.793,VisualSearchFaces,2024.2.4,Win32,59.17159763,,,,,,,,1000.9325,1001.045,1001.0451,1003.045,block2,j,1,0,12,12,16,1,1,top_left,threatening,neutral,0.6311,,,,,,,,,,,,,,,,,
,,,,,330768,f,y,r,n,14,0,2025-04-06_19h19.01.793,VisualSearchFaces,2024.2.4,Win32,59.17159763,,,,,,,,1004.0493,1004.1615,1004.1617,1006.1603,block2,j,1,0,13,13,18,1,1,bottom_left,threatening,neutral,0.5345,,,,,,,,,,,,,,,,,
,,,,,330768,f,y,r,n,14,0,2025-04-06_19h19.01.793,VisualSearchFaces,2024.2.4,Win32,59.17159763,,,,,,,,1007.1651,1007.277,1007.2771,1009.2766,block2,j,1,0,14,14,3,1,1,bottom_left,neutral,friendly,0.4707,,,,,,,,,,,,,,,,,
,,,,,330768,f,y,r,n,14,0,2025-04-06_19h19.01.793,VisualSearchFaces,2024.2.4,Win32,59.17159763,,,,,,,,1010.2808,1010.3925,1010.3926,1012.3919,block2,j,1,0,15,15,4,1,1,bottom_right,neutral,friendly,0.251,,,,,,,,,,,,,,,,,
,,,,,330768,f,y,r,n,14,0,2025-04-06_19h19.01.793,VisualSearchFaces,2024.2.4,Win32,59.17159763,,,,,,,,1013.3962,1013.5081,1013.5082,1015.5078,block2,j,1,0,16,16,5,1,1,centre,neutral,threatening,0.5172,,,,,,,,,,,,,,,,,
,,,,,330768,f,y,r,n,14,0,2025-04-06_19h19.01.793,VisualSearchFaces,2024.2.4,Win32,59.17159763,,,,,,,,1016.5131,1016.624,1016.624,1018.6234,block2,j,0,0,17,17,27,1,0,top_right,neutral,no_target,0.2339,,,,,,,,,,,,,,,,,
,,,,,330768,f,y,r,n,14,0,2025-04-06_19h19.01.793,VisualSearchFaces,2024.2.4,Win32,59.17159763,,,,,,,,1019.627,1019.7396,1019.7396,1021.7392,block2,j,1,0,18,18,9,1,1,bottom_right,neutral,threatening,0.5343,,,,,,,,,,,,,,,,,
,,,,,330768,f,y,r,n,14,0,2025-04-06_19h19.01.793,VisualSearchFaces,2024.2.4,Win32,59.17159763,,,,,,,,1022.7447,1022.8556,1022.8556,1024.855,block2,f,1,0,19,19,34,1,0,bottom_right,friendly,no_target,0.8001,,,,,,,,,,,,,,,,,
,,,,,330768,f,y,r,n,14,0,2025-04-06_19h19.01.793,VisualSearchFaces,2024.2.4,Win32,59.17159763,,,,,,,,1025.8589,1025.9717,1025.9718,1027.971,block2,j,1,0,20,20,14,1,1,bottom_right,friendly,neutral,0.4755,,,,,,,,,,,,,,,,,
,,,,,330768,f,y,r,n,14,0,2025-04-06_19h19.01.793,VisualSearchFaces,2024.2.4,Win32,59.17159763,,,,,,,,1028.9751,1029.087,1029.087,1031.0864,block2,f,1,0,21,21,31,1,0,top_left,friendly,no_target,0.6514,,,,,,,,,,,,,,,,,
,,,,,330768,f,y,r,n,14,0,2025-04-06_19h19.01.793,VisualSearchFaces,2024.2.4,Win32,59.17159763,,,,,,,,1032.0915,1032.2033,1032.2034,1034.2025,block2,j,0,0,22,22,23,1,0,bottom_left,neutral,no_target,0.5847,,,,,,,,,,,,,,,,,
,,,,,330768,f,y,r,n,14,0,2025-04-06_19h19.01.793,VisualSearchFaces,2024.2.4,Win32,59.17159763,,,,,,,,1035.2064,1035.3183,1035.3185,1037.3179,block2,j,1,0,23,23,2,1,1,top_right,neutral,friendly,0.5336,,,,,,,,,,,,,,,,,
,,,,,330768,f,y,r,n,14,0,2025-04-06_19h19.01.793,VisualSearchFaces,2024.2.4,Win32,59.17159763,,,,,,,,1038.3226,1038.4341,1038.4341,1040.4342,block2,j,0,0,24,24,38,1,0,bottom_left,threatening,no_target,0.6037,,,,,,,,,,,,,,,,,
,,,,,330768,f,y,r,n,14,0,2025-04-06_19h19.01.793,VisualSearchFaces,2024.2.4,Win32,59.17159763,,,,,,,,1041.4316,1041.5331,1041.5332,1043.5332,block2,f,1,0,25,25,26,1,0,top_left,neutral,no_target,0.6004,,,,,,,,,,,,,,,,,
,,,,,330768,f,y,r,n,14,0,2025-04-06_19h19.01.793,VisualSearchFaces,2024.2.4,Win32,59.17159763,,,,,,,,1044.5373,1044.649,1044.6491,1046.6486,block2,f,1,0,26,26,20,1,0,centre,neutral,no_target,0.4508,,,,,,,,,,,,,,,,,
,,,,,330768,f,y,r,n,14,0,2025-04-06_19h19.01.793,VisualSearchFaces,2024.2.4,Win32,59.17159763,,,,,,,,1047.6534,1047.7654,1047.7655,1049.7644,block2,f,1,0,27,27,21,1,0,top_left,neutral,no_target,0.4172,,,,,,,,,,,,,,,,,
,,,,,330768,f,y,r,n,14,0,2025-04-06_19h19.01.793,VisualSearchFaces,2024.2.4,Win32,59.17159763,,,,,,,,1050.7692,1050.8812,1050.8813,1052.8802,block2,f,1,0,28,28,25,1,0,centre,neutral,no_target,0.4016,,,,,,,,,,,,,,,,,
,,,,,330768,f,y,r,n,14,0,2025-04-06_19h19.01.793,VisualSearchFaces,2024.2.4,Win32,59.17159763,,,,,,,,1053.8847,1053.9964,1053.9965,1055.9959,block2,j,0,0,29,29,36,1,0,top_left,threatening,no_target,0.5164,,,,,,,,,,,,,,,,,
,,,,,330768,f,y,r,n,14,0,2025-04-06_19h19.01.793,VisualSearchFaces,2024.2.4,Win32,59.17159763,,,,,,,,1057.0007,1057.1125,1057.1125,1059.1119,block2,j,1,0,30,30,6,1,1,top_left,neutral,threatening,0.5333,,,,,,,,,,,,,,,,,
,,,,,330768,f,y,r,n,14,0,2025-04-06_19h19.01.793,VisualSearchFaces,2024.2.4,Win32,59.17159763,,,,,,,,1060.1165,1060.2277,1060.2278,1062.2274,block2,j,1,0,31,31,17,1,1,top_right,threatening,neutral,0.7827,,,,,,,,,,,,,,,,,
,,,,,330768,f,y,r,n,14,0,2025-04-06_19h19.01.793,VisualSearchFaces,2024.2.4,Win32,59.17159763,,,,,,,,1063.2326,1063.3438,1063.3439,1065.3434,block2,f,1,0,32,32,39,1,0,bottom_right,threatening,no_target,0.5355,,,,,,,,,,,,,,,,,
,,,,,330768,f,y,r,n,14,0,2025-04-06_19h19.01.793,VisualSearchFaces,2024.2.4,Win32,59.17159763,,,,,,,,1066.3493,1066.4443,1066.4444,1068.4428,block2,j,1,0,33,33,11,1,1,top_left,friendly,neutral,0.5831,,,,,,,,,,,,,,,,,
,,,,,330768,f,y,r,n,14,0,2025-04-06_19h19.01.793,VisualSearchFaces,2024.2.4,Win32,59.17159763,,,,,,,,1069.4469,1069.559,1069.5591,1071.5581,block2,j,1,0,34,34,13,1,1,bottom_left,friendly,neutral,0.6165,,,,,,,,,,,,,,,,,
,,,,,330768,f,y,r,n,14,0,2025-04-06_19h19.01.793,VisualSearchFaces,2024.2.4,Win32,59.17159763,,,,,,,,1072.5627,1072.6586,1072.6588,1074.6572,block2,f,1,0,35,35,32,1,0,top_right,friendly,no_target,0.5178,,,,,,,,,,,,,,,,,
,,,,,330768,f,y,r,n,14,0,2025-04-06_19h19.01.793,VisualSearchFaces,2024.2.4,Win32,59.17159763,,,,,,,,1075.6714,1075.7739,1075.7739,1077.7735,block2,f,1,0,36,36,33,1,0,bottom_left,friendly,no_target,1.5668,,,,,,,,,,,,,,,,,
,,,,,330768,f,y,r,n,14,0,2025-04-06_19h19.01.793,VisualSearchFaces,2024.2.4,Win32,59.17159763,,,,,,,,1078.7776,1078.8892,1078.8893,1080.8887,block2,f,1,0,37,37,28,1,0,bottom_left,neutral,no_target,0.5758,,,,,,,,,,,,,,,,,
,,,,,330768,f,y,r,n,14,0,2025-04-06_19h19.01.793,VisualSearchFaces,2024.2.4,Win32,59.17159763,,,,,,,,1081.8935,1081.9894,1081.9897,1083.9886,block2,f,1,0,38,38,24,1,0,bottom_right,neutral,no_target,0.3686,,,,,,,,,,,,,,,,,
,,,,,330768,f,y,r,n,14,0,2025-04-06_19h19.01.793,VisualSearchFaces,2024.2.4,Win32,59.17159763,,,,,,,,1084.992,1085.1038,1085.1039,1087.1036,block2,j,1,0,39,39,12,1,1,top_right,friendly,neutral,1.0048,,,,,,,,,,,,,,,,,
,,,,,330768,f,y,r,n,14,0,2025-04-06_19h19.01.793,VisualSearchFaces,2024.2.4,Win32,59.17159763,,,,,,,,1088.1085,1088.2203,1088.2205,1090.2196,block2,j,1,1,0,40,0,1,1,centre,neutral,friendly,0.5035,,,,,,,,,,,,,,,,,
,,,,,330768,f,y,r,n,14,0,2025-04-06_19h19.01.793,VisualSearchFaces,2024.2.4,Win32,59.17159763,,,,,,,,1091.2241,1091.3361,1091.3362,1093.3352,block2,j,1,1,1,41,16,1,1,top_left,threatening,neutral,0.6355,,,,,,,,,,,,,,,,,
,,,,,330768,f,y,r,n,14,0,2025-04-06_19h19.01.793,VisualSearchFaces,2024.2.4,Win32,59.17159763,,,,,,,,1094.3399,1094.4521,1094.4523,1096.4508,block2,f,1,1,2,42,31,1,0,top_left,friendly,no_target,0.5998,,,,,,,,,,,,,,,,,
,,,,,330768,f,y,r,n,14,0,2025-04-06_19h19.01.793,VisualSearchFaces,2024.2.4,Win32,59.17159763,,,,,,,,1097.4563,1097.5674,1097.5674,1099.5558,block2,j,1,1,3,43,7,1,1,top_right,neutral,threatening,0.5506,,,,,,,,,,,,,,,,,
,,,,,330768,f,y,r,n,14,0,2025-04-06_19h19.01.793,VisualSearchFaces,2024.2.4,Win32,59.17159763,,,,,,,,1100.5706,1100.6739,1100.674,1102.6661,block2,j,1,1,4,44,13,1,1,bottom_left,friendly,neutral,0.71,,,,,,,,,,,,,,,,,
,,,,,330768,f,y,r,n,14,0,2025-04-06_19h19.01.793,VisualSearchFaces,2024.2.4,Win32,59.17159763,,,,,,,,1103.6699,1103.7819,1103.782,1105.7818,block2,f,1,1,5,45,34,1,0,bottom_right,friendly,no_target,1.3506,,,,,,,,,,,,,,,,,
,,,,,330768,f,y,r,n,14,0,2025-04-06_19h19.01.793,VisualSearchFaces,2024.2.4,Win32,59.17159763,,,,,,,,1106.7866,1106.8974,1106.8974,1108.8971,block2,j,0,1,6,46,28,1,0,bottom_left,neutral,no_target,0.4842,,,,,,,,,,,,,,,,,
,,,,,330768,f,y,r,n,14,0,2025-04-06_19h19.01.793,VisualSearchFaces,2024.2.4,Win32,59.17159763,,,,,,,,1109.9018,1110.0037,1110.0038,1111.9966,block2,f,1,1,7,47,33,1,0,bottom_left,friendly,no_target,1.1005,,,,,,,,,,,,,,,,,
,,,,,330768,f,y,r,n,14,0,2025-04-06_19h19.01.793,VisualSearchFaces,2024.2.4,Win32,59.17159763,,,,,,,,1113.0009,1113.1127,1113.1129,1115.1122,block2,f,1,1,8,48,27,1,0,top_right,neutral,no_target,0.7007,,,,,,,,,,,,,,,,,
,,,,,330768,f,y,r,n,14,0,2025-04-06_19h19.01.793,VisualSearchFaces,2024.2.4,Win32,59.17159763,,,,,,,,1116.1161,1116.2292,1116.2292,1118.228,block2,f,1,1,9,49,24,1,0,bottom_right,neutral,no_target,0.4004,,,,,,,,,,,,,,,,,
,,,,,330768,f,y,r,n,14,0,2025-04-06_19h19.01.793,VisualSearchFaces,2024.2.4,Win32,59.17159763,,,,,,,,1119.2323,1119.3441,1119.3442,1121.3437,block2,f,1,1,10,50,23,1,0,bottom_left,neutral,no_target,0.2508,,,,,,,,,,,,,,,,,
,,,,,330768,f,y,r,n,14,0,2025-04-06_19h19.01.793,VisualSearchFaces,2024.2.4,Win32,59.17159763,,,,,,,,1122.3479,1122.4435,1122.4435,1124.443,block2,f,1,1,11,51,21,1,0,top_left,neutral,no_target,0.3001,,,,,,,,,,,,,,,,,
,,,,,330768,f,y,r,n,14,0,2025-04-06_19h19.01.793,VisualSearchFaces,2024.2.4,Win32,59.17159763,,,,,,,,1125.4474,1125.5591,1125.5594,1127.5584,block2,j,1,1,12,52,15,1,1,centre,threatening,neutral,0.6835,,,,,,,,,,,,,,,,,
,,,,,330768,f,y,r,n,14,0,2025-04-06_19h19.01.793,VisualSearchFaces,2024.2.4,Win32,59.17159763,,,,,,,,1128.5634,1128.6747,1128.6749,1130.6742,block2,j,1,1,13,53,19,1,1,bottom_right,threatening,neutral,0.4861,,,,,,,,,,,,,,,,,
,,,,,330768,f,y,r,n,14,0,2025-04-06_19h19.01.793,VisualSearchFaces,2024.2.4,Win32,59.17159763,,,,,,,,1131.6791,1131.787,1131.787,1133.7904,block2,j,1,1,14,54,4,1,1,bottom_right,neutral,friendly,0.4721,,,,,,,,,,,,,,,,,
,,,,,330768,f,y,r,n,14,0,2025-04-06_19h19.01.793,VisualSearchFaces,2024.2.4,Win32,59.17159763,,,,,,,,1134.7949,1134.9062,1134.9063,1136.9056,block2,j,1,1,15,55,14,1,1,bottom_right,friendly,neutral,0.4337,,,,,,,,,,,,,,,,,
,,,,,330768,f,y,r,n,14,0,2025-04-06_19h19.01.793,VisualSearchFaces,2024.2.4,Win32,59.17159763,,,,,,,,1137.9104,1138.0226,1138.0227,1140.0217,block2,f,1,1,16,56,26,1,0,top_left,neutral,no_target,0.7338,,,,,,,,,,,,,,,,,
,,,,,330768,f,y,r,n,14,0,2025-04-06_19h19.01.793,VisualSearchFaces,2024.2.4,Win32,59.17159763,,,,,,,,1141.0264,1141.1219,1141.122,1143.1208,block2,f,0,1,17,57,18,1,1,bottom_left,threatening,neutral,0.5821,,,,,,,,,,,,,,,,,
,,,,,330768,f,y,r,n,14,0,2025-04-06_19h19.01.793,VisualSearchFaces,2024.2.4,Win32,59.17159763,,,,,,,,1144.125,1144.2369,1144.237,1146.2365,block2,f,1,1,18,58,35,1,0,centre,threatening,no_target,1.1368,,,,,,,,,,,,,,,,,
,,,,,330768,f,y,r,n,14,0,2025-04-06_19h19.01.793,VisualSearchFaces,2024.2.4,Win32,59.17159763,,,,,,,,1147.2417,1147.3529,1147.353,1149.3522,block2,j,1,1,19,59,10,1,1,centre,friendly,neutral,0.6004,,,,,,,,,,,,,,,,,
,,,,,330768,f,y,r,n,14,0,2025-04-06_19h19.01.793,VisualSearchFaces,2024.2.4,Win32,59.17159763,,,,,,,,1150.3566,1150.4689,1150.4689,1152.4679,block2,j,1,1,20,60,6,1,1,top_left,neutral,threatening,0.5338,,,,,,,,,,,,,,,,,
,,,,,330768,f,y,r,n,14,0,2025-04-06_19h19.01.793,VisualSearchFaces,2024.2.4,Win32,59.17159763,,,,,,,,1153.4724,1153.5839,1153.584,1155.5836,block2,f,1,1,21,61,38,1,0,bottom_left,threatening,no_target,1.5341,,,,,,,,,,,,,,,,,
,,,,,330768,f,y,r,n,14,0,2025-04-06_19h19.01.793,VisualSearchFaces,2024.2.4,Win32,59.17159763,,,,,,,,1156.5881,1156.6862,1156.6862,1158.6828,block2,j,0,1,22,62,30,1,0,centre,friendly,no_target,0.8461,,,,,,,,,,,,,,,,,
,,,,,330768,f,y,r,n,14,0,2025-04-06_19h19.01.793,VisualSearchFaces,2024.2.4,Win32,59.17159763,,,,,,,,1159.6879,1159.7992,1159.7994,1161.7984,block2,f,1,1,23,63,39,1,0,bottom_right,threatening,no_target,0.7159,,,,,,,,,,,,,,,,,
,,,,,330768,f,y,r,n,14,0,2025-04-06_19h19.01.793,VisualSearchFaces,2024.2.4,Win32,59.17159763,,,,,,,,1162.8033,1162.8991,1162.8992,1164.8976,block2,j,1,1,24,64,5,1,1,centre,neutral,threatening,0.5497,,,,,,,,,,,,,,,,,
,,,,,330768,f,y,r,n,14,0,2025-04-06_19h19.01.793,VisualSearchFaces,2024.2.4,Win32,59.17159763,,,,,,,,1165.9018,1166.0138,1166.0139,1168.0136,block2,j,1,1,25,65,9,1,1,bottom_right,neutral,threatening,0.4338,,,,,,,,,,,,,,,,,
,,,,,330768,f,y,r,n,14,0,2025-04-06_19h19.01.793,VisualSearchFaces,2024.2.4,Win32,59.17159763,,,,,,,,1169.0178,1169.1304,1169.1305,1171.1292,block2,j,1,1,26,66,2,1,1,top_right,neutral,friendly,0.4519,,,,,,,,,,,,,,,,,
,,,,,330768,f,y,r,n,14,0,2025-04-06_19h19.01.793,VisualSearchFaces,2024.2.4,Win32,59.17159763,,,,,,,,1172.1338,1172.2457,1172.2459,1174.2451,block2,f,1,1,27,67,29,1,0,bottom_right,neutral,no_target,0.684,,,,,,,,,,,,,,,,,
,,,,,330768,f,y,r,n,14,0,2025-04-06_19h19.01.793,VisualSearchFaces,2024.2.4,Win32,59.17159763,,,,,,,,1175.25,1175.3616,1175.3618,1177.3608,block2,j,1,1,28,68,3,1,1,bottom_left,neutral,friendly,0.6509,,,,,,,,,,,,,,,,,
,,,,,330768,f,y,r,n,14,0,2025-04-06_19h19.01.793,VisualSearchFaces,2024.2.4,Win32,59.17159763,,,,,,,,1178.3651,1178.4775,1178.4777,1180.4764,block2,j,1,1,29,69,12,1,1,top_right,friendly,neutral,0.784,,,,,,,,,,,,,,,,,
,,,,,330768,f,y,r,n,14,0,2025-04-06_19h19.01.793,VisualSearchFaces,2024.2.4,Win32,59.17159763,,,,,,,,1181.4811,1181.5934,1181.5936,1183.5922,block2,f,1,1,30,70,36,1,0,top_left,threatening,no_target,0.9842,,,,,,,,,,,,,,,,,
,,,,,330768,f,y,r,n,14,0,2025-04-06_19h19.01.793,VisualSearchFaces,2024.2.4,Win32,59.17159763,,,,,,,,1184.5961,1184.7089,1184.7091,1186.7088,block2,j,0,1,31,71,22,1,0,top_right,neutral,no_target,0.5336,,,,,,,,,,,,,,,,,
,,,,,330768,f,y,r,n,14,0,2025-04-06_19h19.01.793,VisualSearchFaces,2024.2.4,Win32,59.17159763,,,,,,,,1187.7129,1187.8246,1187.8247,1189.8239,block2,f,1,1,32,72,20,1,0,centre,neutral,no_target,0.7499,,,,,,,,,,,,,,,,,
,,,,,330768,f,y,r,n,14,0,2025-04-06_19h19.01.793,VisualSearchFaces,2024.2.4,Win32,59.17159763,,,,,,,,1190.8279,1190.9308,1190.9308,1192.923,block2,j,1,1,33,73,17,1,1,top_right,threatening,neutral,0.5264,,,,,,,,,,,,,,,,,
,,,,,330768,f,y,r,n,14,0,2025-04-06_19h19.01.793,VisualSearchFaces,2024.2.4,Win32,59.17159763,,,,,,,,1193.9275,1194.039,1194.039,1196.0395,block2,j,1,1,34,74,8,1,1,bottom_left,neutral,threatening,0.6198,,,,,,,,,,,,,,,,,
,,,,,330768,f,y,r,n,14,0,2025-04-06_19h19.01.793,VisualSearchFaces,2024.2.4,Win32,59.17159763,,,,,,,,1197.044,1197.155,1197.1553,1199.1545,block2,j,1,1,35,75,11,1,1,top_left,friendly,neutral,0.8835,,,,,,,,,,,,,,,,,
,,,,,330768,f,y,r,n,14,0,2025-04-06_19h19.01.793,VisualSearchFaces,2024.2.4,Win32,59.17159763,,,,,,,,1200.1588,1200.2709,1200.271,1202.2699,block2,f,1,1,36,76,32,1,0,top_right,friendly,no_target,0.6508,,,,,,,,,,,,,,,,,
,,,,,330768,f,y,r,n,14,0,2025-04-06_19h19.01.793,VisualSearchFaces,2024.2.4,Win32,59.17159763,,,,,,,,1203.2747,1203.3706,1203.3708,1205.3695,block2,f,1,1,37,77,37,1,0,top_right,threatening,no_target,0.8527,,,,,,,,,,,,,,,,,
,,,,,330768,f,y,r,n,14,0,2025-04-06_19h19.01.793,VisualSearchFaces,2024.2.4,Win32,59.17159763,,,,,,,,1206.3739,1206.4857,1206.4858,1208.4849,block2,f,1,1,38,78,25,1,0,centre,neutral,no_target,0.7497,,,,,,,,,,,,,,,,,
,,,,,330768,f,y,r,n,14,0,2025-04-06_19h19.01.793,VisualSearchFaces,2024.2.4,Win32,59.17159763,,,,,,,,1209.4896,1209.6016,1209.6017,1211.6007,block2,j,1,1,39,79,1,1,1,top_left,neutral,friendly,0.3841,,,,,,,,,,,,,,,,,
,,,,,330768,f,y,r,n,14,0,2025-04-06_19h19.01.793,VisualSearchFaces,2024.2.4,Win32,59.17159763,,,1281.8366,1283.3303,space,1.4644,,1284.3344,1284.4301,1284.4304,1286.429,block3,j,1,0,0,0,1,1,1,top_left,neutral,friendly,0.6505,,1211.6048,1281.8314,space,70.1999,,,,,,,,,,,,
,,,,,330768,f,y,r,n,14,0,2025-04-06_19h19.01.793,VisualSearchFaces,2024.2.4,Win32,59.17159763,,,,,,,,1287.4333,1287.5459,1287.5461,1289.545,block3,j,1,0,1,1,17,1,1,top_right,threatening,neutral,0.3673,,,,,,,,,,,,,,,,,
,,,,,330768,f,y,r,n,14,0,2025-04-06_19h19.01.793,VisualSearchFaces,2024.2.4,Win32,59.17159763,,,,,,,,1290.5578,1290.6608,1290.6609,1292.6601,block3,j,1,0,2,2,9,1,1,bottom_right,neutral,threatening,0.3368,,,,,,,,,,,,,,,,,
,,,,,330768,f,y,r,n,14,0,2025-04-06_19h19.01.793,VisualSearchFaces,2024.2.4,Win32,59.17159763,,,,,,,,1293.6655,1293.7768,1293.7769,1295.7763,block3,f,1,0,3,3,33,1,0,bottom_left,friendly,no_target,0.5863,,,,,,,,,,,,,,,,,
,,,,,330768,f,y,r,n,14,0,2025-04-06_19h19.01.793,VisualSearchFaces,2024.2.4,Win32,59.17159763,,,,,,,,1296.7807,1296.8925,1296.8926,1298.88,block3,f,1,0,4,4,36,1,0,top_left,threatening,no_target,0.5664,,,,,,,,,,,,,,,,,
,,,,,330768,f,y,r,n,14,0,2025-04-06_19h19.01.793,VisualSearchFaces,2024.2.4,Win32,59.17159763,,,,,,,,1299.8959,1300.0081,1300.0082,1302.0079,block3,j,1,0,5,5,12,1,1,top_right,friendly,neutral,0.5342,,,,,,,,,,,,,,,,,
,,,,,330768,f,y,r,n,14,0,2025-04-06_19h19.01.793,VisualSearchFaces,2024.2.4,Win32,59.17159763,,,,,,,,1303.012,1303.1239,1303.124,1305.124,block3,f,1,0,6,6,20,1,0,centre,neutral,no_target,0.9342,,,,,,,,,,,,,,,,,
,,,,,330768,f,y,r,n,14,0,2025-04-06_19h19.01.793,VisualSearchFaces,2024.2.4,Win32,59.17159763,,,,,,,,1306.1288,1306.2403,1306.2404,1308.2398,block3,f,1,0,7,7,24,1,0,bottom_right,neutral,no_target,0.6501,,,,,,,,,,,,,,,,,
,,,,,330768,f,y,r,n,14,0,2025-04-06_19h19.01.793,VisualSearchFaces,2024.2.4,Win32,59.17159763,,,,,,,,1309.2443,1309.356,1309.3561,1311.3556,block3,f,1,0,8,8,23,1,0,bottom_left,neutral,no_target,0.2831,,,,,,,,,,,,,,,,,
,,,,,330768,f,y,r,n,14,0,2025-04-06_19h19.01.793,VisualSearchFaces,2024.2.4,Win32,59.17159763,,,,,,,,1312.3605,1312.485,1312.4851,1314.4883,block3,j,1,0,9,9,2,1,1,top_right,neutral,friendly,0.4065,,,,,,,,,,,,,,,,,
,,,,,330768,f,y,r,n,14,0,2025-04-06_19h19.01.793,VisualSearchFaces,2024.2.4,Win32,59.17159763,,,,,,,,1315.4912,1315.5935,1315.5935,1317.5866,block3,j,0,0,10,10,34,1,0,bottom_right,friendly,no_target,0.527,,,,,,,,,,,,,,,,,
,,,,,330768,f,y,r,n,14,0,2025-04-06_19h19.01.793,VisualSearchFaces,2024.2.4,Win32,59.17159763,,,,,,,,1318.5906,1318.7032,1318.7033,1320.7033,block3,j,1,0,11,11,16,1,1,top_left,threatening,neutral,0.717,,,,,,,,,,,,,,,,,
,,,,,330768,f,y,r,n,14,0,2025-04-06_19h19.01.793,VisualSearchFaces,2024.2.4,Win32,59.17159763,,,,,,,,1321.7072,1321.8185,1321.8186,1323.8181,block3,f,1,0,12,12,29,1,0,bottom_right,neutral,no_target,0.6006,,,,,,,,,,,,,,,,,
,,,,,330768,f,y,r,n,14,0,2025-04-06_19h19.01.793,VisualSearchFaces,2024.2.4,Win32,59.17159763,,,,,,,,1324.8229,1324.9187,1324.9189,1326.9172,block3,f,1,0,13,13,21,1,0,top_left,neutral,no_target,0.4919,,,,,,,,,,,,,,,,,
,,,,,330768,f,y,r,n,14,0,2025-04-06_19h19.01.793,VisualSearchFaces,2024.2.4,Win32,59.17159763,,,,,,,,1327.9226,1328.0337,1328.0339,1330.0334,block3,j,0,0,14,14,32,1,0,top_right,friendly,no_target,1.5179,,,,,,,,,,,,,,,,,
,,,,,330768,f,y,r,n,14,0,2025-04-06_19h19.01.793,VisualSearchFaces,2024.2.4,Win32,59.17159763,,,,,,,,1331.0385,1331.1495,1331.1496,1333.1491,block3,j,1,0,15,15,14,1,1,bottom_right,friendly,neutral,0.4677,,,,,,,,,,,,,,,,,
,,,,,330768,f,y,r,n,14,0,2025-04-06_19h19.01.793,VisualSearchFaces,2024.2.4,Win32,59.17159763,,,,,,,,1334.1536,1334.2492,1334.2494,1336.2487,block3,j,0,0,16,16,30,1,0,centre,friendly,no_target,0.5502,,,,,,,,,,,,,,,,,
,,,,,330768,f,y,r,n,14,0,2025-04-06_19h19.01.793,VisualSearchFaces,2024.2.4,Win32,59.17159763,,,,,,,,1337.2529,1337.3646,1337.3647,1339.3638,block3,j,1,0,17,17,19,1,1,bottom_right,threatening,neutral,0.4339,,,,,,,,,,,,,,,,,
,,,,,330768,f,y,r,n,14,0,2025-04-06_19h19.01.793,VisualSearchFaces,2024.2.4,Win32,59.17159763,,,,,,,,1340.3689,1340.4802,1340.4803,1342.4795,block3,f,1,0,18,18,25,1,0,centre,neutral,no_target,0.5009,,,,,,,,,,,,,,,,,
,,,,,330768,f,y,r,n,14,0,2025-04-06_19h19.01.793,VisualSearchFaces,2024.2.4,Win32,59.17159763,,,,,,,,1343.473,1343.5793,1343.5795,1345.579,block3,j,1,0,19,19,6,1,1,top_left,neutral,threatening,0.4182,,,,,,,,,,,,,,,,,
,,,,,330768,f,y,r,n,14,0,2025-04-06_19h19.01.793,VisualSearchFaces,2024.2.4,Win32,59.17159763,,,,,,,,1346.5831,1346.6826,1346.6826,1348.6798,block3,f,0,0,20,20,10,1,1,centre,friendly,neutral,1.0844,,,,,,,,,,,,,,,,,
,,,,,330768,f,y,r,n,14,0,2025-04-06_19h19.01.793,VisualSearchFaces,2024.2.4,Win32,59.17159763,,,,,,,,1349.6807,1349.7775,1349.7775,1351.7773,block3,j,0,0,21,21,28,1,0,bottom_left,neutral,no_target,0.4329,,,,,,,,,,,,,,,,,
,,,,,330768,f,y,r,n,14,0,2025-04-06_19h19.01.793,VisualSearchFaces,2024.2.4,Win32,59.17159763,,,,,,,,1352.7812,1352.8935,1352.8936,1354.8924,block3,j,1,0,22,22,15,1,1,centre,threatening,neutral,0.5832,,,,,,,,,,,,,,,,,
,,,,,330768,f,y,r,n,14,0,2025-04-06_19h19.01.793,VisualSearchFaces,2024.2.4,Win32,59.17159763,,,,,,,,1355.8972,1356.0091,1356.0093,1358.0085,block3,f,1,0,23,23,39,1,0,bottom_right,threatening,no_target,1.1008,,,,,,,,,,,,,,,,,
,,,,,330768,f,y,r,n,14,0,2025-04-06_19h19.01.793,VisualSearchFaces,2024.2.4,Win32,59.17159763,,,,,,,,1359.0134,1359.1088,1359.1089,1361.1076,block3,j,1,0,24,24,3,1,1,bottom_left,neutral,friendly,0.5163,,,,,,,,,,,,,,,,,
,,,,,330768,f,y,r,n,14,0,2025-04-06_19h19.01.793,VisualSearchFaces,2024.2.4,Win32,59.17159763,,,,,,,,1362.1124,1362.2246,1362.2247,1364.2234,block3,j,1,0,25,25,0,1,1,centre,neutral,friendly,0.4209,,,,,,,,,,,,,,,,,
,,,,,330768,f,y,r,n,14,0,2025-04-06_19h19.01.793,VisualSearchFaces,2024.2.4,Win32,59.17159763,,,,,,,,1365.2142,1365.3232,1365.3233,1367.3223,block3,f,1,0,26,26,22,1,0,top_right,neutral,no_target,0.6173,,,,,,,,,,,,,,,,,
,,,,,330768,f,y,r,n,14,0,2025-04-06_19h19.01.793,VisualSearchFaces,2024.2.4,Win32,59.17159763,,,,,,,,1368.3266,1368.4387,1368.4389,1370.4379,block3,f,1,0,27,27,27,1,0,top_right,neutral,no_target,0.3836,,,,,,,,,,,,,,,,,
,,,,,330768,f,y,r,n,14,0,2025-04-06_19h19.01.793,VisualSearchFaces,2024.2.4,Win32,59.17159763,,,,,,,,1371.443,1371.5546,1371.5546,1373.554,block3,j,0,0,28,28,38,1,0,bottom_left,threatening,no_target,0.4999,,,,,,,,,,,,,,,,,
,,,,,330768,f,y,r,n,14,0,2025-04-06_19h19.01.793,VisualSearchFaces,2024.2.4,Win32,59.17159763,,,,,,,,1374.5579,1374.67,1374.6701,1376.6697,block3,f,1,0,29,29,26,1,0,top_left,neutral,no_target,0.5834,,,,,,,,,,,,,,,,,
,,,,,330768,f,y,r,n,14,0,2025-04-06_19h19.01.793,VisualSearchFaces,2024.2.4,Win32,59.17159763,,,,,,,,1377.6744,1377.7861,1377.7865,1379.7854,block3,j,1,0,30,30,5,1,1,centre,neutral,threatening,0.4206,,,,,,,,,,,,,,,,,
,,,,,330768,f,y,r,n,14,0,2025-04-06_19h19.01.793,VisualSearchFaces,2024.2.4,Win32,59.17159763,,,,,,,,1380.7896,1380.9017,1380.9017,1382.9013,block3,f,0,0,31,31,18,1,1,bottom_left,threatening,neutral,0.5346,,,,,,,,,,,,,,,,,
,,,,,330768,f,y,r,n,14,0,2025-04-06_19h19.01.793,VisualSearchFaces,2024.2.4,Win32,59.17159763,,,,,,,,1383.906,1384.0177,1384.0177,1386.0172,block3,j,1,0,32,32,7,1,1,top_right,neutral,threatening,0.684,,,,,,,,,,,,,,,,,
,,,,,330768,f,y,r,n,14,0,2025-04-06_19h19.01.793,VisualSearchFaces,2024.2.4,Win32,59.17159763,,,,,,,,1387.0212,1387.1332,1387.1333,1389.1334,block3,j,1,0,33,33,11,1,1,top_left,friendly,neutral,0.5676,,,,,,,,,,,,,,,,,
,,,,,330768,f,y,r,n,14,0,2025-04-06_19h19.01.793,VisualSearchFaces,2024.2.4,Win32,59.17159763,,,,,,,,1390.1375,1390.2497,1390.2497,1392.2484,block3,j,1,0,34,34,8,1,1,bottom_left,neutral,threatening,0.3844,,,,,,,,,,,,,,,,,
,,,,,330768,f,y,r,n,14,0,2025-04-06_19h19.01.793,VisualSearchFaces,2024.2.4,Win32,59.17159763,,,,,,,,1393.2529,1393.3645,1393.3647,1395.3638,block3,j,1,0,35,35,13,1,1,bottom_left,friendly,neutral,0.4687,,,,,,,,,,,,,,,,,
,,,,,330768,f,y,r,n,14,0,2025-04-06_19h19.01.793,VisualSearchFaces,2024.2.4,Win32,59.17159763,,,,,,,,1396.3684,1396.4802,1396.4803,1398.4804,block3,f,1,0,36,36,37,1,0,top_right,threatening,no_target,1.1185,,,,,,,,,,,,,,,,,
,,,,,330768,f,y,r,n,14,0,2025-04-06_19h19.01.793,VisualSearchFaces,2024.2.4,Win32,59.17159763,,,,,,,,1399.485,1399.596,1399.596,1401.5956,block3,f,1,0,37,37,31,1,0,top_left,friendly,no_target,0.568,,,,,,,,,,,,,,,,,
,,,,,330768,f,y,r,n,14,0,2025-04-06_19h19.01.793,VisualSearchFaces,2024.2.4,Win32,59.17159763,,,,,,,,1402.602,1402.7128,1402.7131,1404.7114,block3,j,1,0,38,38,4,1,1,bottom_right,neutral,friendly,0.9196,,,,,,,,,,,,,,,,,
,,,,,330768,f,y,r,n,14,0,2025-04-06_19h19.01.793,VisualSearchFaces,2024.2.4,Win32,59.17159763,,,,,,,,1405.7165,1405.828,1405.8281,1407.8271,block3,f,1,0,39,39,35,1,0,centre,threatening,no_target,0.9338,,,,,,,,,,,,,,,,,
,,,,,330768,f,y,r,n,14,0,2025-04-06_19h19.01.793,VisualSearchFaces,2024.2.4,Win32,59.17159763,,,,,,,,1408.8316,1408.9435,1408.9437,1410.9429,block3,j,0,1,0,40,36,1,0,top_left,threatening,no_target,1.0689,,,,,,,,,,,,,,,,,
,,,,,330768,f,y,r,n,14,0,2025-04-06_19h19.01.793,VisualSearchFaces,2024.2.4,Win32,59.17159763,,,,,,,,1411.9474,1412.0591,1412.0592,1414.0588,block3,j,1,1,1,41,8,1,1,bottom_left,neutral,threatening,1.4164,,,,,,,,,,,,,,,,,
,,,,,330768,f,y,r,n,14,0,2025-04-06_19h19.01.793,VisualSearchFaces,2024.2.4,Win32,59.17159763,,,,,,,,1415.0637,1415.1748,1415.1749,1417.1746,block3,f,1,1,2,42,32,1,0,top_right,friendly,no_target,1.2673,,,,,,,,,,,,,,,,,
,,,,,330768,f,y,r,n,14,0,2025-04-06_19h19.01.793,VisualSearchFaces,2024.2.4,Win32,59.17159763,,,,,,,,1418.1797,1418.2906,1418.2908,1420.2909,block3,f,1,1,3,43,21,1,0,top_left,neutral,no_target,0.317,,,,,,,,,,,,,,,,,
,,,,,330768,f,y,r,n,14,0,2025-04-06_19h19.01.793,VisualSearchFaces,2024.2.4,Win32,59.17159763,,,,,,,,1421.2946,1421.4064,1421.4065,1423.4064,block3,f,1,1,4,44,29,1,0,bottom_right,neutral,no_target,0.3843,,,,,,,,,,,,,,,,,
,,,,,330768,f,y,r,n,14,0,2025-04-06_19h19.01.793,VisualSearchFaces,2024.2.4,Win32,59.17159763,,,,,,,,1424.4108,1424.5096,1424.5097,1426.5049,block3,j,1,1,5,45,0,1,1,centre,neutral,friendly,0.4963,,,,,,,,,,,,,,,,,
,,,,,330768,f,y,r,n,14,0,2025-04-06_19h19.01.793,VisualSearchFaces,2024.2.4,Win32,59.17159763,,,,,,,,1427.5091,1427.6212,1427.6213,1429.621,block3,f,1,1,6,46,31,1,0,top_left,friendly,no_target,0.5859,,,,,,,,,,,,,,,,,
,,,,,330768,f,y,r,n,14,0,2025-04-06_19h19.01.793,VisualSearchFaces,2024.2.4,Win32,59.17159763,,,,,,,,1430.6257,1430.7368,1430.7369,1432.7365,block3,j,1,1,7,47,6,1,1,top_left,neutral,threatening,0.6673,,,,,,,,,,,,,,,,,
,,,,,330768,f,y,r,n,14,0,2025-04-06_19h19.01.793,VisualSearchFaces,2024.2.4,Win32,59.17159763,,,,,,,,1433.7417,1433.8526,1433.8526,1435.8524,block3,j,1,1,8,48,18,1,1,bottom_left,threatening,neutral,0.534,,,,,,,,,,,,,,,,,
,,,,,330768,f,y,r,n,14,0,2025-04-06_19h19.01.793,VisualSearchFaces,2024.2.4,Win32,59.17159763,,,,,,,,1436.8569,1436.969,1436.969,1438.968,block3,f,1,1,9,49,38,1,0,bottom_left,threatening,no_target,0.7174,,,,,,,,,,,,,,,,,
,,,,,330768,f,y,r,n,14,0,2025-04-06_19h19.01.793,VisualSearchFaces,2024.2.4,Win32,59.17159763,,,,,,,,1439.9728,1440.0683,1440.0684,1442.0689,block3,f,1,1,10,50,39,1,0,bottom_right,threatening,no_target,1.5327,,,,,,,,,,,,,,,,,
,,,,,330768,f,y,r,n,14,0,2025-04-06_19h19.01.793,VisualSearchFaces,2024.2.4,Win32,59.17159763,,,,,,,,1443.0719,1443.1832,1443.1833,1445.1839,block3,j,1,1,11,51,10,1,1,centre,friendly,neutral,0.4335,,,,,,,,,,,,,,,,,
,,,,,330768,f,y,r,n,14,0,2025-04-06_19h19.01.793,VisualSearchFaces,2024.2.4,Win32,59.17159763,,,,,,,,1446.1874,1446.2998,1446.2999,1448.2987,block3,j,0,1,12,52,24,1,0,bottom_right,neutral,no_target,0.5343,,,,,,,,,,,,,,,,,
,,,,,330768,f,y,r,n,14,0,2025-04-06_19h19.01.793,VisualSearchFaces,2024.2.4,Win32,59.17159763,,,,,,,,1449.3036,1449.4152,1449.4153,1451.4149,block3,j,1,1,13,53,16,1,1,top_left,threatening,neutral,0.6007,,,,,,,,,,,,,,,,,
,,,,,330768,f,y,r,n,14,0,2025-04-06_19h19.01.793,VisualSearchFaces,2024.2.4,Win32,59.17159763,,,,,,,,1452.4195,1452.5306,1452.5306,1454.5311,block3,j,1,1,14,54,2,1,1,top_right,neutral,friendly,0.5338,,,,,,,,,,,,,,,,,
,,,,,330768,f,y,r,n,14,0,2025-04-06_19h19.01.793,VisualSearchFaces,2024.2.4,Win32,59.17159763,,,,,,,,1455.5353,1455.6465,1455.6466,1457.6459,block3,j,0,1,15,55,28,1,0,bottom_left,neutral,no_target,0.5005,,,,,,,,,,,,,,,,,
,,,,,330768,f,y,r,n,14,0,2025-04-06_19h19.01.793,VisualSearchFaces,2024.2.4,Win32,59.17159763,,,,,,,,1458.6509,1458.7626,1458.7627,1460.7621,block3,f,1,1,16,56,26,1,0,top_left,neutral,no_target,0.3876,,,,,,,,,,,,,,,,,
,,,,,330768,f,y,r,n,14,0,2025-04-06_19h19.01.793,VisualSearchFaces,2024.2.4,Win32,59.17159763,,,,,,,,1461.7663,1461.8744,1461.8744,1463.8779,block3,j,1,1,17,57,11,1,1,top_left,friendly,neutral,0.7405,,,,,,,,,,,,,,,,,
,,,,,330768,f,y,r,n,14,0,2025-04-06_19h19.01.793,VisualSearchFaces,2024.2.4,Win32,59.17159763,,,,,,,,1464.8827,1464.9934,1464.9935,1466.9933,block3,f,1,1,18,58,35,1,0,centre,threatening,no_target,0.6995,,,,,,,,,,,,,,,,,
,,,,,330768,f,y,r,n,14,0,2025-04-06_19h19.01.793,VisualSearchFaces,2024.2.4,Win32,59.17159763,,,,,,,,1467.9979,1468.1094,1468.1095,1470.1092,block3,j,1,1,19,59,3,1,1,bottom_left,neutral,friendly,0.7665,,,,,,,,,,,,,,,,,
,,,,,330768,f,y,r,n,14,0,2025-04-06_19h19.01.793,VisualSearchFaces,2024.2.4,Win32,59.17159763,,,,,,,,1471.1145,1471.2254,1471.2255,1473.2247,block3,j,1,1,20,60,4,1,1,bottom_right,neutral,friendly,1.4598,,,,,,,,,,,,,,,,,
,,,,,330768,f,y,r,n,14,0,2025-04-06_19h19.01.793,VisualSearchFaces,2024.2.4,Win32,59.17159763,,,,,,,,1474.2292,1474.3413,1474.3414,1476.341,block3,j,1,1,21,61,19,1,1,bottom_right,threatening,neutral,0.5167,,,,,,,,,,,,,,,,,
,,,,,330768,f,y,r,n,14,0,2025-04-06_19h19.01.793,VisualSearchFaces,2024.2.4,Win32,59.17159763,,,,,,,,1477.3458,1477.4466,1477.4468,1479.44,block3,j,1,1,22,62,7,1,1,top_right,neutral,threatening,0.4774,,,,,,,,,,,,,,,,,
,,,,,330768,f,y,r,n,14,0,2025-04-06_19h19.01.793,VisualSearchFaces,2024.2.4,Win32,59.17159763,,,,,,,,1480.4449,1480.5556,1480.5558,1482.5552,block3,j,1,1,23,63,15,1,1,centre,threatening,neutral,0.6184,,,,,,,,,,,,,,,,,
,,,,,330768,f,y,r,n,14,0,2025-04-06_19h19.01.793,VisualSearchFaces,2024.2.4,Win32,59.17159763,,,,,,,,1483.5603,1483.6719,1483.672,1485.6712,block3,j,1,1,24,64,13,1,1,bottom_left,friendly,neutral,0.4836,,,,,,,,,,,,,,,,,
,,,,,330768,f,y,r,n,14,0,2025-04-06_19h19.01.793,VisualSearchFaces,2024.2.4,Win32,59.17159763,,,,,,,,1486.6759,1486.7874,1486.7876,1488.7869,block3,f,1,1,25,65,33,1,0,bottom_left,friendly,no_target,0.6005,,,,,,,,,,,,,,,,,
,,,,,330768,f,y,r,n,14,0,2025-04-06_19h19.01.793,VisualSearchFaces,2024.2.4,Win32,59.17159763,,,,,,,,1489.7907,1489.9,1489.9001,1491.9026,block3,j,0,1,26,66,22,1,0,top_right,neutral,no_target,0.4379,,,,,,,,,,,,,,,,,
,,,,,330768,f,y,r,n,14,0,2025-04-06_19h19.01.793,VisualSearchFaces,2024.2.4,Win32,59.17159763,,,,,,,,1492.9066,1493.019,1493.0191,1495.0185,block3,f,1,1,27,67,20,1,0,centre,neutral,no_target,0.5843,,,,,,,,,,,,,,,,,
,,,,,330768,f,y,r,n,14,0,2025-04-06_19h19.01.793,VisualSearchFaces,2024.2.4,Win32,59.17159763,,,,,,,,1496.023,1496.1205,1496.1207,1498.1185,block3,j,1,1,28,68,1,1,1,top_left,neutral,friendly,0.5005,,,,,,,,,,,,,,,,,
,,,,,330768,f,y,r,n,14,0,2025-04-06_19h19.01.793,VisualSearchFaces,2024.2.4,Win32,59.17159763,,,,,,,,1499.1153,1499.2174,1499.2175,1501.2166,block3,j,0,1,29,69,25,1,0,centre,neutral,no_target,0.4686,,,,,,,,,,,,,,,,,
,,,,,330768,f,y,r,n,14,0,2025-04-06_19h19.01.793,VisualSearchFaces,2024.2.4,Win32,59.17159763,,,,,,,,1502.2207,1502.3331,1502.3333,1504.3323,block3,j,1,1,30,70,5,1,1,centre,neutral,threatening,0.6326,,,,,,,,,,,,,,,,,
,,,,,330768,f,y,r,n,14,0,2025-04-06_19h19.01.793,VisualSearchFaces,2024.2.4,Win32,59.17159763,,,,,,,,1505.3377,1505.4369,1505.4369,1507.4316,block3,f,0,1,31,71,12,1,1,top_right,friendly,neutral,0.6486,,,,,,,,,,,,,,,,,
,,,,,330768,f,y,r,n,14,0,2025-04-06_19h19.01.793,VisualSearchFaces,2024.2.4,Win32,59.17159763,,,,,,,,1508.4364,1508.5482,1508.5484,1510.5473,block3,f,1,1,32,72,23,1,0,bottom_left,neutral,no_target,0.6006,,,,,,,,,,,,,,,,,
,,,,,330768,f,y,r,n,14,0,2025-04-06_19h19.01.793,VisualSearchFaces,2024.2.4,Win32,59.17159763,,,,,,,,1511.551,1511.6638,1511.6639,1513.6633,block3,f,1,1,33,73,37,1,0,top_right,threatening,no_target,0.9502,,,,,,,,,,,,,,,,,
,,,,,330768,f,y,r,n,14,0,2025-04-06_19h19.01.793,VisualSearchFaces,2024.2.4,Win32,59.17159763,,,,,,,,1514.6682,1514.7801,1514.7803,1516.7791,block3,f,1,1,34,74,30,1,0,centre,friendly,no_target,0.6163,,,,,,,,,,,,,,,,,
,,,,,330768,f,y,r,n,14,0,2025-04-06_19h19.01.793,VisualSearchFaces,2024.2.4,Win32,59.17159763,,,,,,,,1517.7834,1517.8958,1517.8959,1519.8949,block3,j,1,1,35,75,9,1,1,bottom_right,neutral,threatening,0.916,,,,,,,,,,,,,,,,,
,,,,,330768,f,y,r,n,14,0,2025-04-06_19h19.01.793,VisualSearchFaces,2024.2.4,Win32,59.17159763,,,,,,,,1520.8996,1521.0112,1521.0114,1523.0105,block3,j,1,1,36,76,17,1,1,top_right,threatening,neutral,0.5699,,,,,,,,,,,,,,,,,
,,,,,330768,f,y,r,n,14,0,2025-04-06_19h19.01.793,VisualSearchFaces,2024.2.4,Win32,59.17159763,,,,,,,,1524.0149,1524.1271,1524.1272,1526.1265,block3,f,1,1,37,77,27,1,0,top_right,neutral,no_target,0.7171,,,,,,,,,,,,,,,,,
,,,,,330768,f,y,r,n,14,0,2025-04-06_19h19.01.793,VisualSearchFaces,2024.2.4,Win32,59.17159763,,,,,,,,1527.1199,1527.2257,1527.2259,1529.2257,block3,j,1,1,38,78,14,1,1,bottom_right,friendly,neutral,0.5002,,,,,,,,,,,,,,,,,
,,,,,330768,f,y,r,n,14,0,2025-04-06_19h19.01.793,VisualSearchFaces,2024.2.4,Win32,59.17159763,,,,,,,,1530.2306,1530.3418,1530.342,1532.3411,block3,f,1,1,39,79,34,1,0,bottom_right,friendly,no_target,0.9171,,,,,,,,,,,,,,,,,
,,,,,330768,f,y,r,n,14,0,2025-04-06_19h19.01.793,VisualSearchFaces,2024.2.4,Win32,59.17159763,,,1540.9615,1597.4054,space,56.4132,,1598.4102,1598.5067,1598.5067,1600.5049,block4,,0,0,0,0,29,1,0,bottom_right,neutral,no_target,,,1532.3447,1540.9551,space,8.5793,,,,,,,,,,,,
,,,,,330768,f,y,r,n,14,0,2025-04-06_19h19.01.793,VisualSearchFaces,2024.2.4,Win32,59.17159763,,,,,,,,1601.5086,1601.621,1601.6212,1603.6204,block4,j,1,0,1,1,2,1,1,top_right,neutral,friendly,0.6336,,,,,,,,,,,,,,,,,
,,,,,330768,f,y,r,n,14,0,2025-04-06_19h19.01.793,VisualSearchFaces,2024.2.4,Win32,59.17159763,,,,,,,,1604.6252,1604.7366,1604.7366,1606.7364,block4,f,1,0,2,2,23,1,0,bottom_left,neutral,no_target,0.7259,,,,,,,,,,,,,,,,,
,,,,,330768,f,y,r,n,14,0,2025-04-06_19h19.01.793,VisualSearchFaces,2024.2.4,Win32,59.17159763,,,,,,,,1607.7407,1607.8525,1607.8527,1609.8522,block4,j,1,0,3,3,10,1,1,centre,friendly,neutral,0.5508,,,,,,,,,,,,,,,,,
,,,,,330768,f,y,r,n,14,0,2025-04-06_19h19.01.793,VisualSearchFaces,2024.2.4,Win32,59.17159763,,,,,,,,1610.8573,1610.9522,1610.9523,1612.9514,block4,f,0,0,4,4,8,1,1,bottom_left,neutral,threatening,0.2171,,,,,,,,,,,,,,,,,
,,,,,330768,f,y,r,n,14,0,2025-04-06_19h19.01.793,VisualSearchFaces,2024.2.4,Win32,59.17159763,,,,,,,,1613.9562,1614.0675,1614.0676,1616.067,block4,f,1,0,5,5,38,1,0,bottom_left,threatening,no_target,0.668,,,,,,,,,,,,,,,,,
,,,,,330768,f,y,r,n,14,0,2025-04-06_19h19.01.793,VisualSearchFaces,2024.2.4,Win32,59.17159763,,,,,,,,1617.0715,1617.1731,1617.1731,1619.1658,block4,j,1,0,6,6,11,1,1,top_left,friendly,neutral,0.7962,,,,,,,,,,,,,,,,,
,,,,,330768,f,y,r,n,14,0,2025-04-06_19h19.01.793,VisualSearchFaces,2024.2.4,Win32,59.17159763,,,,,,,,1620.1704,1620.2819,1620.2819,1622.2826,block4,j,1,0,7,7,19,1,1,bottom_right,threatening,neutral,0.6191,,,,,,,,,,,,,,,,,
,,,,,330768,f,y,r,n,14,0,2025-04-06_19h19.01.793,VisualSearchFaces,2024.2.4,Win32,59.17159763,,,,,,,,1623.2863,1623.398,1623.3981,1625.3976,block4,j,0,0,8,8,22,1,0,top_right,neutral,no_target,0.5678,,,,,,,,,,,,,,,,,
,,,,,330768,f,y,r,n,14,0,2025-04-06_19h19.01.793,VisualSearchFaces,2024.2.4,Win32,59.17159763,,,,,,,,1626.4023,1626.5139,1626.5141,1628.5129,block4,f,1,0,9,9,35,1,0,centre,threatening,no_target,1.0775,,,,,,,,,,,,,,,,,
,,,,,330768,f,y,r,n,14,0,2025-04-06_19h19.01.793,VisualSearchFaces,2024.2.4,Win32,59.17159763,,,,,,,,1629.5173,1629.6295,1629.6297,1631.629,block4,j,0,0,10,10,37,1,0,top_right,threatening,no_target,0.8824,,,,,,,,,,,,,,,,,
,,,,,330768,f,y,r,n,14,0,2025-04-06_19h19.01.793,VisualSearchFaces,2024.2.4,Win32,59.17159763,,,,,,,,1632.6339,1632.7449,1632.745,1634.7446,block4,j,1,0,11,11,18,1,1,bottom_left,threatening,neutral,0.5184,,,,,,,,,,,,,,,,,
,,,,,330768,f,y,r,n,14,0,2025-04-06_19h19.01.793,VisualSearchFaces,2024.2.4,Win32,59.17159763,,,,,,,,1635.7496,1635.8614,1635.8614,1637.8605,block4,f,1,0,12,12,24,1,0,bottom_right,neutral,no_target,0.8194,,,,,,,,,,,,,,,,,
,,,,,330768,f,y,r,n,14,0,2025-04-06_19h19.01.793,VisualSearchFaces,2024.2.4,Win32,59.17159763,,,,,,,,1638.8655,1638.9771,1638.9772,1640.9766,block4,j,1,0,13,13,4,1,1,bottom_right,neutral,friendly,0.5176,,,,,,,,,,,,,,,,,
,,,,,330768,f,y,r,n,14,0,2025-04-06_19h19.01.793,VisualSearchFaces,2024.2.4,Win32,59.17159763,,,,,,,,1641.9809,1642.0925,1642.0927,1644.0922,block4,j,1,0,14,14,16,1,1,top_left,threatening,neutral,0.6839,,,,,,,,,,,,,,,,,
,,,,,330768,f,y,r,n,14,0,2025-04-06_19h19.01.793,VisualSearchFaces,2024.2.4,Win32,59.17159763,,,,,,,,1645.0966,1645.2089,1645.209,1647.2078,block4,f,1,0,15,15,39,1,0,bottom_right,threatening,no_target,0.6335,,,,,,,,,,,,,,,,,
,,,,,330768,f,y,r,n,14,0,2025-04-06_19h19.01.793,VisualSearchFaces,2024.2.4,Win32,59.17159763,,,,,,,,1648.2128,1648.325,1648.3251,1650.324,block4,j,1,0,16,16,14,1,1,bottom_right,friendly,neutral,0.4334,,,,,,,,,,,,,,,,,
,,,,,330768,f,y,r,n,14,0,2025-04-06_19h19.01.793,VisualSearchFaces,2024.2.4,Win32,59.17159763,,,,,,,,1651.3295,1651.4394,1651.4395,1653.4393,block4,j,1,0,17,17,6,1,1,top_left,neutral,threatening,0.4835,,,,,,,,,,,,,,,,,
,,,,,330768,f,y,r,n,14,0,2025-04-06_19h19.01.793,VisualSearchFaces,2024.2.4,Win32,59.17159763,,,,,,,,1654.4433,1654.5553,1654.5554,1656.5551,block4,f,1,0,18,18,28,1,0,bottom_left,neutral,no_target,0.7176,,,,,,,,,,,,,,,,,
,,,,,330768,f,y,r,n,14,0,2025-04-06_19h19.01.793,VisualSearchFaces,2024.2.4,Win32,59.17159763,,,,,,,,1657.5592,1657.6715,1657.6715,1659.6709,block4,j,0,0,19,19,21,1,0,top_left,neutral,no_target,0.5185,,,,,,,,,,,,,,,,,
,,,,,330768,f,y,r,n,14,0,2025-04-06_19h19.01.793,VisualSearchFaces,2024.2.4,Win32,59.17159763,,,,,,,,1660.6748,1660.7838,1660.7838,1662.7865,block4,j,0,0,20,20,32,1,0,top_right,friendly,no_target,0.4565,,,,,,,,,,,,,,,,,
,,,,,330768,f,y,r,n,14,0,2025-04-06_19h19.01.793,VisualSearchFaces,2024.2.4,Win32,59.17159763,,,,,,,,1663.7911,1663.8944,1663.8944,1665.8855,block4,j,1,0,21,21,9,1,1,bottom_right,neutral,threatening,0.5246,,,,,,,,,,,,,,,,,
,,,,,330768,f,y,r,n,14,0,2025-04-06_19h19.01.793,VisualSearchFaces,2024.2.4,Win32,59.17159763,,,,,,,,1666.8914,1667.002,1667.0022,1669.0018,block4,j,1,0,22,22,15,1,1,centre,threatening,neutral,1.3672,,,,,,,,,,,,,,,,,
,,,,,330768,f,y,r,n,14,0,2025-04-06_19h19.01.793,VisualSearchFaces,2024.2.4,Win32,59.17159763,,,,,,,,1670.0064,1670.1084,1670.1084,1672.1007,block4,f,1,0,23,23,25,1,0,centre,neutral,no_target,0.7092,,,,,,,,,,,,,,,,,
,,,,,330768,f,y,r,n,14,0,2025-04-06_19h19.01.793,VisualSearchFaces,2024.2.4,Win32,59.17159763,,,,,,,,1673.1051,1673.2168,1673.2169,1675.2177,block4,j,1,0,24,24,17,1,1,top_right,threatening,neutral,0.4851,,,,,,,,,,,,,,,,,
,,,,,330768,f,y,r,n,14,0,2025-04-06_19h19.01.793,VisualSearchFaces,2024.2.4,Win32,59.17159763,,,,,,,,1676.2199,1676.3179,1676.318,1678.3152,block4,j,1,0,25,25,13,1,1,bottom_left,friendly,neutral,0.5215,,,,,,,,,,,,,,,,,
,,,,,330768,f,y,r,n,14,0,2025-04-06_19h19.01.793,VisualSearchFaces,2024.2.4,Win32,59.17159763,,,,,,,,1679.32,1679.4319,1679.4319,1681.432,block4,f,1,0,26,26,27,1,0,top_right,neutral,no_target,0.5847,,,,,,,,,,,,,,,,,
,,,,,330768,f,y,r,n,14,0,2025-04-06_19h19.01.793,VisualSearchFaces,2024.2.4,Win32,59.17159763,,,,,,,,1682.4356,1682.5474,1682.5475,1684.5481,block4,,0,0,27,27,36,1,0,top_left,threatening,no_target,,,,,,,,,,,,,,,,,,
,,,,,330768,f,y,r,n,14,0,2025-04-06_19h19.01.793,VisualSearchFaces,2024.2.4,Win32,59.17159763,,,,,,,,1685.5516,1685.6611,1685.6611,1687.6627,block4,j,1,0,28,28,12,1,1,top_right,friendly,neutral,0.5705,,,,,,,,,,,,,,,,,
,,,,,330768,f,y,r,n,14,0,2025-04-06_19h19.01.793,VisualSearchFaces,2024.2.4,Win32,59.17159763,,,,,,,,1688.6669,1688.7791,1688.7792,1690.7782,block4,j,1,0,29,29,7,1,1,top_right,neutral,threatening,0.5177,,,,,,,,,,,,,,,,,
,,,,,330768,f,y,r,n,14,0,2025-04-06_19h19.01.793,VisualSearchFaces,2024.2.4,Win32,59.17159763,,,,,,,,1691.7835,1691.8851,1691.8851,1693.8775,block4,f,1,0,30,30,31,1,0,top_left,friendly,no_target,0.5423,,,,,,,,,,,,,,,,,
,,,,,330768,f,y,r,n,14,0,2025-04-06_19h19.01.793,VisualSearchFaces,2024.2.4,Win32,59.17159763,,,,,,,,1694.883,1694.9865,1694.9867,1696.9768,block4,j,1,0,31,31,5,1,1,centre,neutral,threatening,0.3673,,,,,,,,,,,,,,,,,
,,,,,330768,f,y,r,n,14,0,2025-04-06_19h19.01.793,VisualSearchFaces,2024.2.4,Win32,59.17159763,,,,,,,,1697.981,1698.0829,1698.0829,1700.0758,block4,f,1,0,32,32,33,1,0,bottom_left,friendly,no_target,0.8111,,,,,,,,,,,,,,,,,
,,,,,330768,f,y,r,n,14,0,2025-04-06_19h19.01.793,VisualSearchFaces,2024.2.4,Win32,59.17159763,,,,,,,,1701.0801,1701.1925,1701.1926,1703.1917,block4,f,1,0,33,33,30,1,0,centre,friendly,no_target,0.42,,,,,,,,,,,,,,,,,
,,,,,330768,f,y,r,n,14,0,2025-04-06_19h19.01.793,VisualSearchFaces,2024.2.4,Win32,59.17159763,,,,,,,,1704.1961,1704.2917,1704.2918,1706.2908,block4,f,1,0,34,34,26,1,0,top_left,neutral,no_target,0.5338,,,,,,,,,,,,,,,,,
,,,,,330768,f,y,r,n,14,0,2025-04-06_19h19.01.793,VisualSearchFaces,2024.2.4,Win32,59.17159763,,,,,,,,1707.2956,1707.4072,1707.4073,1709.4064,block4,j,1,0,35,35,3,1,1,bottom_left,neutral,friendly,0.4674,,,,,,,,,,,,,,,,,
,,,,,330768,f,y,r,n,14,0,2025-04-06_19h19.01.793,VisualSearchFaces,2024.2.4,Win32,59.17159763,,,,,,,,1710.411,1710.5419,1710.5421,1712.5393,block4,j,1,0,36,36,0,1,1,centre,neutral,friendly,1.1316,,,,,,,,,,,,,,,,,
,,,,,330768,f,y,r,n,14,0,2025-04-06_19h19.01.793,VisualSearchFaces,2024.2.4,Win32,59.17159763,,,,,,,,1713.5436,1713.6461,1713.6461,1715.6378,block4,,0,0,37,37,1,1,1,top_left,neutral,friendly,,,,,,,,,,,,,,,,,,
,,,,,330768,f,y,r,n,14,0,2025-04-06_19h19.01.793,VisualSearchFaces,2024.2.4,Win32,59.17159763,,,,,,,,1716.6456,1716.7453,1716.7453,1718.7408,block4,f,1,0,38,38,20,1,0,centre,neutral,no_target,0.4919,,,,,,,,,,,,,,,,,
,,,,,330768,f,y,r,n,14,0,2025-04-06_19h19.01.793,VisualSearchFaces,2024.2.4,Win32,59.17159763,,,,,,,,1719.742,1719.8535,1719.8537,1721.853,block4,f,1,0,39,39,34,1,0,bottom_right,friendly,no_target,0.604,,,,,,,,,,,,,,,,,
,,,,,330768,f,y,r,n,14,0,2025-04-06_19h19.01.793,VisualSearchFaces,2024.2.4,Win32,59.17159763,,,,,,,,1722.8572,1722.9701,1722.9702,1724.9686,block4,j,1,1,0,40,14,1,1,bottom_right,friendly,neutral,0.5183,,,,,,,,,,,,,,,,,
,,,,,330768,f,y,r,n,14,0,2025-04-06_19h19.01.793,VisualSearchFaces,2024.2.4,Win32,59.17159763,,,,,,,,1725.9739,1726.0852,1726.0852,1728.0843,block4,f,1,1,1,41,26,1,0,top_left,neutral,no_target,1.4878,,,,,,,,,,,,,,,,,
,,,,,330768,f,y,r,n,14,0,2025-04-06_19h19.01.793,VisualSearchFaces,2024.2.4,Win32,59.17159763,,,,,,,,1729.0892,1729.201,1729.2011,1731.2008,block4,j,1,1,2,42,4,1,1,bottom_right,neutral,friendly,0.518,,,,,,,,,,,,,,,,,
,,,,,330768,f,y,r,n,14,0,2025-04-06_19h19.01.793,VisualSearchFaces,2024.2.4,Win32,59.17159763,,,,,,,,1732.2051,1732.3162,1732.3163,1734.3157,block4,f,1,1,3,43,31,1,0,top_left,friendly,no_target,1.0665,,,,,,,,,,,,,,,,,
,,,,,330768,f,y,r,n,14,0,2025-04-06_19h19.01.793,VisualSearchFaces,2024.2.4,Win32,59.17159763,,,,,,,,1735.3206,1735.4322,1735.4323,1737.4316,block4,j,0,1,4,44,25,1,0,centre,neutral,no_target,0.4496,,,,,,,,,,,,,,,,,
,,,,,330768,f,y,r,n,14,0,2025-04-06_19h19.01.793,VisualSearchFaces,2024.2.4,Win32,59.17159763,,,,,,,,1738.4365,1738.5362,1738.5362,1740.5306,block4,f,1,1,5,45,23,1,0,bottom_left,neutral,no_target,0.6612,,,,,,,,,,,,,,,,,
,,,,,330768,f,y,r,n,14,0,2025-04-06_19h19.01.793,VisualSearchFaces,2024.2.4,Win32,59.17159763,,,,,,,,1741.5352,1741.6356,1741.6356,1743.6303,block4,j,1,1,6,46,1,1,1,top_left,neutral,friendly,0.4285,,,,,,,,,,,,,,,,,
,,,,,330768,f,y,r,n,14,0,2025-04-06_19h19.01.793,VisualSearchFaces,2024.2.4,Win32,59.17159763,,,,,,,,1744.6352,1744.742,1744.7421,1746.7455,block4,j,1,1,7,47,11,1,1,top_left,friendly,neutral,1.0773,,,,,,,,,,,,,,,,,
,,,,,330768,f,y,r,n,14,0,2025-04-06_19h19.01.793,VisualSearchFaces,2024.2.4,Win32,59.17159763,,,,,,,,1747.7498,1747.8615,1747.8616,1749.8612,block4,f,1,1,8,48,39,1,0,bottom_right,threatening,no_target,0.618,,,,,,,,,,,,,,,,,
,,,,,330768,f,y,r,n,14,0,2025-04-06_19h19.01.793,VisualSearchFaces,2024.2.4,Win32,59.17159763,,,,,,,,1750.8659,1750.9777,1750.9778,1752.9772,block4,f,1,1,9,49,36,1,0,top_left,threatening,no_target,0.5583,,,,,,,,,,,,,,,,,
,,,,,330768,f,y,r,n,14,0,2025-04-06_19h19.01.793,VisualSearchFaces,2024.2.4,Win32,59.17159763,,,,,,,,1753.9814,1754.0934,1754.0935,1756.0928,block4,j,1,1,10,50,2,1,1,top_right,neutral,friendly,0.6339,,,,,,,,,,,,,,,,,
,,,,,330768,f,y,r,n,14,0,2025-04-06_19h19.01.793,VisualSearchFaces,2024.2.4,Win32,59.17159763,,,,,,,,1757.0976,1757.2096,1757.2098,1759.2088,block4,j,1,1,11,51,15,1,1,centre,threatening,neutral,0.4526,,,,,,,,,,,,,,,,,
,,,,,330768,f,y,r,n,14,0,2025-04-06_19h19.01.793,VisualSearchFaces,2024.2.4,Win32,59.17159763,,,,,,,,1760.2137,1760.3158,1760.3159,1762.3076,block4,f,1,1,12,52,33,1,0,bottom_left,friendly,no_target,0.6423,,,,,,,,,,,,,,,,,
,,,,,330768,f,y,r,n,14,0,2025-04-06_19h19.01.793,VisualSearchFaces,2024.2.4,Win32,59.17159763,,,,,,,,1763.3112,1763.4239,1763.4241,1765.4239,block4,f,0,1,13,53,13,1,1,bottom_left,friendly,neutral,0.4756,,,,,,,,,,,,,,,,,
,,,,,330768,f,y,r,n,14,0,2025-04-06_19h19.01.793,VisualSearchFaces,2024.2.4,Win32,59.17159763,,,,,,,,1766.4279,1766.5402,1766.5403,1768.5393,block4,f,1,1,14,54,35,1,0,centre,threatening,no_target,1.2333,,,,,,,,,,,,,,,,,
,,,,,330768,f,y,r,n,14,0,2025-04-06_19h19.01.793,VisualSearchFaces,2024.2.4,Win32,59.17159763,,,,,,,,1769.5439,1769.6562,1769.6562,1771.6551,block4,j,1,1,15,55,0,1,1,centre,neutral,friendly,0.4821,,,,,,,,,,,,,,,,,
,,,,,330768,f,y,r,n,14,0,2025-04-06_19h19.01.793,VisualSearchFaces,2024.2.4,Win32,59.17159763,,,,,,,,1772.6593,1772.7554,1772.7555,1774.7543,block4,f,1,1,16,56,21,1,0,top_left,neutral,no_target,0.6495,,,,,,,,,,,,,,,,,
,,,,,330768,f,y,r,n,14,0,2025-04-06_19h19.01.793,VisualSearchFaces,2024.2.4,Win32,59.17159763,,,,,,,,1775.7591,1775.86,1775.86,1777.854,block4,f,1,1,17,57,22,1,0,top_right,neutral,no_target,0.3773,,,,,,,,,,,,,,,,,
,,,,,330768,f,y,r,n,14,0,2025-04-06_19h19.01.793,VisualSearchFaces,2024.2.4,Win32,59.17159763,,,,,,,,1778.8574,1778.9696,1778.9698,1780.9687,block4,j,1,1,18,58,17,1,1,top_right,threatening,neutral,0.5332,,,,,,,,,,,,,,,,,
,,,,,330768,f,y,r,n,14,0,2025-04-06_19h19.01.793,VisualSearchFaces,2024.2.4,Win32,59.17159763,,,,,,,,1781.9734,1782.0855,1782.0855,1784.0853,block4,f,1,1,19,59,34,1,0,bottom_right,friendly,no_target,0.6166,,,,,,,,,,,,,,,,,
,,,,,330768,f,y,r,n,14,0,2025-04-06_19h19.01.793,VisualSearchFaces,2024.2.4,Win32,59.17159763,,,,,,,,1785.0895,1785.2012,1785.2013,1787.2007,block4,j,1,1,20,60,8,1,1,bottom_left,neutral,threatening,0.4168,,,,,,,,,,,,,,,,,
,,,,,330768,f,y,r,n,14,0,2025-04-06_19h19.01.793,VisualSearchFaces,2024.2.4,Win32,59.17159763,,,,,,,,1788.2056,1788.3171,1788.3173,1790.3163,block4,f,1,1,21,61,30,1,0,centre,friendly,no_target,0.9338,,,,,,,,,,,,,,,,,
,,,,,330768,f,y,r,n,14,0,2025-04-06_19h19.01.793,VisualSearchFaces,2024.2.4,Win32,59.17159763,,,,,,,,1791.3205,1791.4325,1791.4325,1793.4322,block4,j,1,1,22,62,18,1,1,bottom_left,threatening,neutral,0.5838,,,,,,,,,,,,,,,,,
,,,,,330768,f,y,r,n,14,0,2025-04-06_19h19.01.793,VisualSearchFaces,2024.2.4,Win32,59.17159763,,,,,,,,1794.4367,1794.5491,1794.5493,1796.5483,block4,f,1,1,23,63,37,1,0,top_right,threatening,no_target,0.5016,,,,,,,,,,,,,,,,,
,,,,,330768,f,y,r,n,14,0,2025-04-06_19h19.01.793,VisualSearchFaces,2024.2.4,Win32,59.17159763,,,,,,,,1797.5529,1797.66,1797.66,1799.6634,block4,j,1,1,24,64,12,1,1,top_right,friendly,neutral,0.4505,,,,,,,,,,,,,,,,,
,,,,,330768,f,y,r,n,14,0,2025-04-06_19h19.01.793,VisualSearchFaces,2024.2.4,Win32,59.17159763,,,,,,,,1800.6678,1800.7765,1800.7765,1802.7793,block4,j,1,1,25,65,7,1,1,top_right,neutral,threatening,0.4715,,,,,,,,,,,,,,,,,
,,,,,330768,f,y,r,n,14,0,2025-04-06_19h19.01.793,VisualSearchFaces,2024.2.4,Win32,59.17159763,,,,,,,,1803.7837,1803.8816,1803.8816,1805.8786,block4,f,1,1,26,66,20,1,0,centre,neutral,no_target,0.6808,,,,,,,,,,,,,,,,,
,,,,,330768,f,y,r,n,14,0,2025-04-06_19h19.01.793,VisualSearchFaces,2024.2.4,Win32,59.17159763,,,,,,,,1806.8826,1806.9787,1806.9788,1808.9775,block4,j,1,1,27,67,5,1,1,centre,neutral,threatening,0.4492,,,,,,,,,,,,,,,,,
,,,,,330768,f,y,r,n,14,0,2025-04-06_19h19.01.793,VisualSearchFaces,2024.2.4,Win32,59.17159763,,,,,,,,1809.9819,1810.0847,1810.0847,1812.0766,block4,f,1,1,28,68,27,1,0,top_right,neutral,no_target,0.5087,,,,,,,,,,,,,,,,,
,,,,,330768,f,y,r,n,14,0,2025-04-06_19h19.01.793,VisualSearchFaces,2024.2.4,Win32,59.17159763,,,,,,,,1813.0812,1813.1931,1813.1932,1815.1925,block4,f,1,1,29,69,32,1,0,top_right,friendly,no_target,0.9677,,,,,,,,,,,,,,,,,
,,,,,330768,f,y,r,n,14,0,2025-04-06_19h19.01.793,VisualSearchFaces,2024.2.4,Win32,59.17159763,,,,,,,,1816.1978,1816.3092,1816.3093,1818.3084,block4,j,1,1,30,70,16,1,1,top_left,threatening,neutral,0.5826,,,,,,,,,,,,,,,,,
,,,,,330768,f,y,r,n,14,0,2025-04-06_19h19.01.793,VisualSearchFaces,2024.2.4,Win32,59.17159763,,,,,,,,1819.3124,1819.4246,1819.4247,1821.4241,block4,j,1,1,31,71,6,1,1,top_left,neutral,threatening,0.6172,,,,,,,,,,,,,,,,,
,,,,,330768,f,y,r,n,14,0,2025-04-06_19h19.01.793,VisualSearchFaces,2024.2.4,Win32,59.17159763,,,,,,,,1822.428,1822.5401,1822.5401,1824.5395,block4,j,1,1,32,72,3,1,1,bottom_left,neutral,friendly,0.6172,,,,,,,,,,,,,,,,,
,,,,,330768,f,y,r,n,14,0,2025-04-06_19h19.01.793,VisualSearchFaces,2024.2.4,Win32,59.17159763,,,,,,,,1825.5447,1825.6559,1825.656,1827.6555,block4,j,1,1,33,73,9,1,1,bottom_right,neutral,threatening,0.5511,,,,,,,,,,,,,,,,,
,,,,,330768,f,y,r,n,14,0,2025-04-06_19h19.01.793,VisualSearchFaces,2024.2.4,Win32,59.17159763,,,,,,,,1828.6598,1828.7718,1828.7718,1830.771,block4,f,1,1,34,74,38,1,0,bottom_left,threatening,no_target,0.7006,,,,,,,,,,,,,,,,,
,,,,,330768,f,y,r,n,14,0,2025-04-06_19h19.01.793,VisualSearchFaces,2024.2.4,Win32,59.17159763,,,,,,,,1831.7762,1831.8781,1831.8782,1833.8701,block4,f,1,1,35,75,24,1,0,bottom_right,neutral,no_target,0.7267,,,,,,,,,,,,,,,,,
,,,,,330768,f,y,r,n,14,0,2025-04-06_19h19.01.793,VisualSearchFaces,2024.2.4,Win32,59.17159763,,,,,,,,1834.8747,1834.9865,1834.9867,1836.9861,block4,f,0,1,36,76,19,1,1,bottom_right,threatening,neutral,0.6505,,,,,,,,,,,,,,,,,
,,,,,330768,f,y,r,n,14,0,2025-04-06_19h19.01.793,VisualSearchFaces,2024.2.4,Win32,59.17159763,,,,,,,,1837.9907,1838.0906,1838.0907,1840.0853,block4,f,1,1,37,77,28,1,0,bottom_left,neutral,no_target,0.6311,,,,,,,,,,,,,,,,,
,,,,,330768,f,y,r,n,14,0,2025-04-06_19h19.01.793,VisualSearchFaces,2024.2.4,Win32,59.17159763,,,,,,,,1841.0897,1841.1925,1841.1925,1843.1841,block4,j,1,1,38,78,10,1,1,centre,friendly,neutral,0.4426,,,,,,,,,,,,,,,,,
,,,,,330768,f,y,r,n,14,0,2025-04-06_19h19.01.793,VisualSearchFaces,2024.2.4,Win32,59.17159763,,,,,,,,1844.1894,1844.3007,1844.3007,1846.3001,block4,f,1,1,39,79,29,1,0,bottom_right,neutral,no_target,0.4833,,,,,,,,,,,,,,,,,
,,,,,330768,f,y,r,n,14,0,2025-04-06_19h19.01.793,VisualSearchFaces,2024.2.4,Win32,59.17159763,,,,,,,,,,,,,,,,,,,,,,,,,,1846.3045,1850.5154,space,4.1817,,1850.5185,1888.6778,"they were faces, some mad, some neutral ",1,[1888.6762000000479],[1888.6762000000479],,,,,
,,,,,330768,f,y,r,n,14,0,2025-04-06_19h19.01.793,VisualSearchFaces,2024.2.4,Win32,59.17159763,,,,,,,,,,,,,,,,,,,,,,,,,,,,,,,,,,,,,1888.6802,1890.4037,space,1.7035,
