Welcome.started,Welcome.stopped,keyboard_space_welcome.keys,keyboard_space_welcome.rt,keyboard_space_welcome.duration,participant,gender,(corrected) normal vision,handedness,exp vse,session,skip_intro,date,expName,psychopyVersion,OS,frameRate,stimulus_exposure.started,stimulus_exposure.stopped,Block_intro.started,Block_intro.stopped,keyboard_space.keys,keyboard_space.rt,keyboard_space.duration,Stimulus.started,Stimulus.stopped,fixation_ending.started,fixation_ending.stopped,block_id,keyboard_response.keys,keyboard_response.corr,keyboard_response.rt,keyboard_response.duration,trials.thisRepN,trials.thisTrialN,trials.thisN,trials.thisIndex,trials.ran,target_presence,target_position,background_emotion,target_emotion,Block_outro.started,Block_outro.stopped,keyboard_space_end.keys,keyboard_space_end.rt,keyboard_space_end.duration,Question_about_stimulus.started,Question_about_stimulus.stopped,textbox_response.text,button.numClicks,button.timesOn,button.timesOff,Thanks.started,Thanks.stopped,keyboard_space_goodbye.keys,keyboard_space_goodbye.rt,keyboard_space_goodbye.duration
0.0002,133.7632,space,133.7372,,356794,f,y,r,n,13,0,2025-04-06_19h19.02.624,VisualSearchFaces,2024.2.4,Win32,59.88023952,,,,,,,,,,,,,,,,,,,,,,,,,,,,,,,,,,,,,,,,,
,,,,,356794,f,y,r,n,13,0,2025-04-06_19h19.02.624,VisualSearchFaces,2024.2.4,Win32,59.88023952,154.875,157.8904,157.895,214.6879,space,56.7779,,215.6897,215.9544,215.9545,217.9541,practice1,j,1,1.8163,,0,0,0,19,1,1,bottom_right,threatening,neutral,,,,,,,,,,,,,,,,
,,,,,356794,f,y,r,n,13,0,2025-04-06_19h19.02.624,VisualSearchFaces,2024.2.4,Win32,59.88023952,,,,,,,,218.9552,219.2208,219.2208,221.2205,practice1,f,1,0.4774,,0,1,1,23,1,0,bottom_left,neutral,no_target,,,,,,,,,,,,,,,,
,,,,,356794,f,y,r,n,13,0,2025-04-06_19h19.02.624,VisualSearchFaces,2024.2.4,Win32,59.88023952,,,,,,,,222.2215,222.487,222.487,224.4868,practice1,f,1,0.3754,,0,2,2,24,1,0,bottom_right,neutral,no_target,,,,,,,,,,,,,,,,
,,,,,356794,f,y,r,n,13,0,2025-04-06_19h19.02.624,VisualSearchFaces,2024.2.4,Win32,59.88023952,,,,,,,,225.4887,225.7534,225.7535,227.7534,practice1,f,1,0.2677,,0,3,3,20,1,0,centre,neutral,no_target,,,,,,,,,,,,,,,,
,,,,,356794,f,y,r,n,13,0,2025-04-06_19h19.02.624,VisualSearchFaces,2024.2.4,Win32,59.88023952,,,,,,,,228.7551,229.02,229.0201,231.0201,practice1,j,1,0.5765,,0,4,4,12,1,1,top_right,friendly,neutral,,,,,,,,,,,,,,,,
,,,,,356794,f,y,r,n,13,0,2025-04-06_19h19.02.624,VisualSearchFaces,2024.2.4,Win32,59.88023952,,,,,,,,232.0217,232.2865,232.2866,234.2864,practice1,j,1,0.6329,,0,5,5,11,1,1,top_left,friendly,neutral,,,,,,,,,,,,,,,,
,,,,,356794,f,y,r,n,13,0,2025-04-06_19h19.02.624,VisualSearchFaces,2024.2.4,Win32,59.88023952,,,,,,,,235.2879,235.5369,235.5369,237.5364,practice1,f,1,0.9199,,0,6,6,33,1,0,bottom_left,friendly,no_target,,,,,,,,,,,,,,,,
,,,,,356794,f,y,r,n,13,0,2025-04-06_19h19.02.624,VisualSearchFaces,2024.2.4,Win32,59.88023952,,,,,,,,238.5379,238.8028,238.8029,240.8027,practice1,j,1,0.6456,,0,7,7,8,1,1,bottom_left,neutral,threatening,,,,,,,,,,,,,,,,
,,,,,356794,f,y,r,n,13,0,2025-04-06_19h19.02.624,VisualSearchFaces,2024.2.4,Win32,59.88023952,,,,,,,,241.8042,242.0695,242.0695,244.0692,practice1,f,1,0.6603,,0,8,8,22,1,0,top_right,neutral,no_target,,,,,,,,,,,,,,,,
,,,,,356794,f,y,r,n,13,0,2025-04-06_19h19.02.624,VisualSearchFaces,2024.2.4,Win32,59.88023952,,,,,,,,245.0708,245.3358,245.3359,247.3358,practice1,f,0,0.4417,,0,9,9,16,1,1,top_left,threatening,neutral,,,,,,,,,,,,,,,,
,,,,,356794,f,y,r,n,13,0,2025-04-06_19h19.02.624,VisualSearchFaces,2024.2.4,Win32,59.88023952,,,,,,,,248.3375,248.6024,248.6024,250.6023,practice1,f,1,0.8173,,0,10,10,36,1,0,top_left,threatening,no_target,,,,,,,,,,,,,,,,
,,,,,356794,f,y,r,n,13,0,2025-04-06_19h19.02.624,VisualSearchFaces,2024.2.4,Win32,59.88023952,,,,,,,,251.6041,251.8688,251.8688,253.8686,practice1,f,1,0.3909,,0,11,11,21,1,0,top_left,neutral,no_target,,,,,,,,,,,,,,,,
,,,,,356794,f,y,r,n,13,0,2025-04-06_19h19.02.624,VisualSearchFaces,2024.2.4,Win32,59.88023952,,,,,,,,254.8708,255.1358,255.1358,257.1353,practice1,j,1,0.2383,,0,12,12,2,1,1,top_right,neutral,friendly,,,,,,,,,,,,,,,,
,,,,,356794,f,y,r,n,13,0,2025-04-06_19h19.02.624,VisualSearchFaces,2024.2.4,Win32,59.88023952,,,,,,,,258.1372,258.3855,258.3855,260.385,practice1,j,1,0.4922,,0,13,13,0,1,1,centre,neutral,friendly,,,,,,,,,,,,,,,,
,,,,,356794,f,y,r,n,13,0,2025-04-06_19h19.02.624,VisualSearchFaces,2024.2.4,Win32,59.88023952,,,,,,,,261.3873,261.6517,261.6517,263.6515,practice1,j,1,0.5675,,0,14,14,18,1,1,bottom_left,threatening,neutral,,,,,,,,,,,,,,,,
,,,,,356794,f,y,r,n,13,0,2025-04-06_19h19.02.624,VisualSearchFaces,2024.2.4,Win32,59.88023952,,,,,,,,264.6528,264.9183,264.9183,266.9184,practice1,f,1,0.5772,,0,15,15,37,1,0,top_right,threatening,no_target,,,,,,,,,,,,,,,,
,,,,,356794,f,y,r,n,13,0,2025-04-06_19h19.02.624,VisualSearchFaces,2024.2.4,Win32,59.88023952,,,,,,,,267.919,268.1849,268.185,270.1844,practice1,j,1,0.3753,,0,16,16,17,1,1,top_right,threatening,neutral,,,,,,,,,,,,,,,,
,,,,,356794,f,y,r,n,13,0,2025-04-06_19h19.02.624,VisualSearchFaces,2024.2.4,Win32,59.88023952,,,,,,,,271.1857,271.4514,271.4515,273.4511,practice1,j,1,0.6419,,0,17,17,13,1,1,bottom_left,friendly,neutral,,,,,,,,,,,,,,,,
,,,,,356794,f,y,r,n,13,0,2025-04-06_19h19.02.624,VisualSearchFaces,2024.2.4,Win32,59.88023952,,,,,,,,274.4523,274.7176,274.7177,276.7175,practice1,j,0,0.4987,,0,18,18,27,1,0,top_right,neutral,no_target,,,,,,,,,,,,,,,,
,,,,,356794,f,y,r,n,13,0,2025-04-06_19h19.02.624,VisualSearchFaces,2024.2.4,Win32,59.88023952,,,,,,,,277.7191,277.9842,277.9842,279.984,practice1,j,1,0.3585,,0,19,19,6,1,1,top_left,neutral,threatening,,,,,,,,,,,,,,,,
,,,,,356794,f,y,r,n,13,0,2025-04-06_19h19.02.624,VisualSearchFaces,2024.2.4,Win32,59.88023952,,,,,,,,280.9863,281.2509,281.251,283.2505,practice1,j,1,0.3812,,0,20,20,10,1,1,centre,friendly,neutral,,,,,,,,,,,,,,,,
,,,,,356794,f,y,r,n,13,0,2025-04-06_19h19.02.624,VisualSearchFaces,2024.2.4,Win32,59.88023952,,,,,,,,284.2522,284.5172,284.5173,286.5169,practice1,f,1,0.4096,,0,21,21,26,1,0,top_left,neutral,no_target,,,,,,,,,,,,,,,,
,,,,,356794,f,y,r,n,13,0,2025-04-06_19h19.02.624,VisualSearchFaces,2024.2.4,Win32,59.88023952,,,,,,,,287.519,287.7841,287.7842,289.7836,practice1,j,1,0.3735,,0,22,22,5,1,1,centre,neutral,threatening,,,,,,,,,,,,,,,,
,,,,,356794,f,y,r,n,13,0,2025-04-06_19h19.02.624,VisualSearchFaces,2024.2.4,Win32,59.88023952,,,,,,,,290.7854,291.0503,291.0504,293.05,practice1,f,1,0.5852,,0,23,23,29,1,0,bottom_right,neutral,no_target,,,,,,,,,,,,,,,,
,,,,,356794,f,y,r,n,13,0,2025-04-06_19h19.02.624,VisualSearchFaces,2024.2.4,Win32,59.88023952,,,,,,,,294.0516,294.3166,294.3166,296.3165,practice1,j,1,0.4284,,0,24,24,14,1,1,bottom_right,friendly,neutral,,,,,,,,,,,,,,,,
,,,,,356794,f,y,r,n,13,0,2025-04-06_19h19.02.624,VisualSearchFaces,2024.2.4,Win32,59.88023952,,,,,,,,297.3183,297.5831,297.5831,299.5831,practice1,j,1,0.2553,,0,25,25,9,1,1,bottom_right,neutral,threatening,,,,,,,,,,,,,,,,
,,,,,356794,f,y,r,n,13,0,2025-04-06_19h19.02.624,VisualSearchFaces,2024.2.4,Win32,59.88023952,,,,,,,,300.5843,300.8496,300.8497,302.8497,practice1,f,1,0.3394,,0,26,26,25,1,0,centre,neutral,no_target,,,,,,,,,,,,,,,,
,,,,,356794,f,y,r,n,13,0,2025-04-06_19h19.02.624,VisualSearchFaces,2024.2.4,Win32,59.88023952,,,,,,,,303.852,304.1164,304.1164,306.116,practice1,f,1,0.3901,,0,27,27,30,1,0,centre,friendly,no_target,,,,,,,,,,,,,,,,
,,,,,356794,f,y,r,n,13,0,2025-04-06_19h19.02.624,VisualSearchFaces,2024.2.4,Win32,59.88023952,,,,,,,,307.1181,307.3826,307.3826,309.3827,practice1,f,1,0.4211,,0,28,28,38,1,0,bottom_left,threatening,no_target,,,,,,,,,,,,,,,,
,,,,,356794,f,y,r,n,13,0,2025-04-06_19h19.02.624,VisualSearchFaces,2024.2.4,Win32,59.88023952,,,,,,,,310.3844,310.6491,310.6492,312.6492,practice1,j,1,0.2854,,0,29,29,15,1,1,centre,threatening,neutral,,,,,,,,,,,,,,,,
,,,,,356794,f,y,r,n,13,0,2025-04-06_19h19.02.624,VisualSearchFaces,2024.2.4,Win32,59.88023952,,,,,,,,313.6503,313.9157,313.9157,315.9155,practice1,f,1,0.5034,,0,30,30,39,1,0,bottom_right,threatening,no_target,,,,,,,,,,,,,,,,
,,,,,356794,f,y,r,n,13,0,2025-04-06_19h19.02.624,VisualSearchFaces,2024.2.4,Win32,59.88023952,,,,,,,,316.9171,317.1824,317.1824,319.182,practice1,f,1,0.4272,,0,31,31,35,1,0,centre,threatening,no_target,,,,,,,,,,,,,,,,
,,,,,356794,f,y,r,n,13,0,2025-04-06_19h19.02.624,VisualSearchFaces,2024.2.4,Win32,59.88023952,,,,,,,,320.1833,320.4485,320.4486,322.4485,practice1,f,0,0.352,,0,32,32,7,1,1,top_right,neutral,threatening,,,,,,,,,,,,,,,,
,,,,,356794,f,y,r,n,13,0,2025-04-06_19h19.02.624,VisualSearchFaces,2024.2.4,Win32,59.88023952,,,,,,,,323.45,323.7151,323.7151,325.7151,practice1,j,1,0.2414,,0,33,33,1,1,1,top_left,neutral,friendly,,,,,,,,,,,,,,,,
,,,,,356794,f,y,r,n,13,0,2025-04-06_19h19.02.624,VisualSearchFaces,2024.2.4,Win32,59.88023952,,,,,,,,326.7166,326.9817,326.9818,328.9816,practice1,f,1,0.4001,,0,34,34,28,1,0,bottom_left,neutral,no_target,,,,,,,,,,,,,,,,
,,,,,356794,f,y,r,n,13,0,2025-04-06_19h19.02.624,VisualSearchFaces,2024.2.4,Win32,59.88023952,,,,,,,,329.9825,330.2484,330.2484,332.2481,practice1,f,1,0.4688,,0,35,35,34,1,0,bottom_right,friendly,no_target,,,,,,,,,,,,,,,,
,,,,,356794,f,y,r,n,13,0,2025-04-06_19h19.02.624,VisualSearchFaces,2024.2.4,Win32,59.88023952,,,,,,,,333.2493,333.5146,333.5147,335.5144,practice1,f,1,0.3851,,0,36,36,32,1,0,top_right,friendly,no_target,,,,,,,,,,,,,,,,
,,,,,356794,f,y,r,n,13,0,2025-04-06_19h19.02.624,VisualSearchFaces,2024.2.4,Win32,59.88023952,,,,,,,,336.5155,336.7648,336.7648,338.7643,practice1,j,1,0.2495,,0,37,37,4,1,1,bottom_right,neutral,friendly,,,,,,,,,,,,,,,,
,,,,,356794,f,y,r,n,13,0,2025-04-06_19h19.02.624,VisualSearchFaces,2024.2.4,Win32,59.88023952,,,,,,,,339.7655,340.031,340.031,342.0308,practice1,f,0,0.254,,0,38,38,3,1,1,bottom_left,neutral,friendly,,,,,,,,,,,,,,,,
,,,,,356794,f,y,r,n,13,0,2025-04-06_19h19.02.624,VisualSearchFaces,2024.2.4,Win32,59.88023952,,,,,,,,343.0319,343.2809,343.2809,345.2806,practice1,f,1,0.4355,,0,39,39,31,1,0,top_left,friendly,no_target,,,,,,,,,,,,,,,,
,,,,,356794,f,y,r,n,13,0,2025-04-06_19h19.02.624,VisualSearchFaces,2024.2.4,Win32,59.88023952,,,405.6148,411.8111,space,6.1827,,412.8128,412.9274,412.9274,414.9272,practice2,j,1,0.4483,,0,0,0,10,1,1,centre,friendly,neutral,345.2811,405.6116,space,60.3118,,,,,,,,,,,,
,,,,,356794,f,y,r,n,13,0,2025-04-06_19h19.02.624,VisualSearchFaces,2024.2.4,Win32,59.88023952,,,,,,,,415.9287,416.0436,416.0437,418.0437,practice2,j,1,0.5115,,0,1,1,0,1,1,centre,neutral,friendly,,,,,,,,,,,,,,,,
,,,,,356794,f,y,r,n,13,0,2025-04-06_19h19.02.624,VisualSearchFaces,2024.2.4,Win32,59.88023952,,,,,,,,419.045,419.1602,419.1602,421.1604,practice2,f,1,0.4728,,0,2,2,38,1,0,bottom_left,threatening,no_target,,,,,,,,,,,,,,,,
,,,,,356794,f,y,r,n,13,0,2025-04-06_19h19.02.624,VisualSearchFaces,2024.2.4,Win32,59.88023952,,,,,,,,422.1617,422.2768,422.2768,424.2768,practice2,f,1,0.4702,,0,3,3,35,1,0,centre,threatening,no_target,,,,,,,,,,,,,,,,
,,,,,356794,f,y,r,n,13,0,2025-04-06_19h19.02.624,VisualSearchFaces,2024.2.4,Win32,59.88023952,,,,,,,,425.2786,425.3938,425.3939,427.3932,practice2,f,1,0.3792,,0,4,4,29,1,0,bottom_right,neutral,no_target,,,,,,,,,,,,,,,,
,,,,,356794,f,y,r,n,13,0,2025-04-06_19h19.02.624,VisualSearchFaces,2024.2.4,Win32,59.88023952,,,,,,,,428.3939,428.5096,428.5096,430.5097,practice2,j,1,0.5333,,0,5,5,2,1,1,top_right,neutral,friendly,,,,,,,,,,,,,,,,
,,,,,356794,f,y,r,n,13,0,2025-04-06_19h19.02.624,VisualSearchFaces,2024.2.4,Win32,59.88023952,,,,,,,,431.5115,431.6263,431.6263,433.6262,practice2,f,1,0.6474,,0,6,6,32,1,0,top_right,friendly,no_target,,,,,,,,,,,,,,,,
,,,,,356794,f,y,r,n,13,0,2025-04-06_19h19.02.624,VisualSearchFaces,2024.2.4,Win32,59.88023952,,,,,,,,434.6272,434.7262,434.7262,436.7259,practice2,f,0,0.6705,,0,7,7,18,1,1,bottom_left,threatening,neutral,,,,,,,,,,,,,,,,
,,,,,356794,f,y,r,n,13,0,2025-04-06_19h19.02.624,VisualSearchFaces,2024.2.4,Win32,59.88023952,,,,,,,,437.7273,437.8264,437.8264,439.8257,practice2,f,1,0.4607,,0,8,8,26,1,0,top_left,neutral,no_target,,,,,,,,,,,,,,,,
,,,,,356794,f,y,r,n,13,0,2025-04-06_19h19.02.624,VisualSearchFaces,2024.2.4,Win32,59.88023952,,,,,,,,440.8268,440.9259,440.926,442.9255,practice2,j,1,0.3538,,0,9,9,4,1,1,bottom_right,neutral,friendly,,,,,,,,,,,,,,,,
,,,,,356794,f,y,r,n,13,0,2025-04-06_19h19.02.624,VisualSearchFaces,2024.2.4,Win32,59.88023952,,,,,,,,443.9274,444.0422,444.0424,446.0422,practice2,j,1,0.4809,,0,10,10,8,1,1,bottom_left,neutral,threatening,,,,,,,,,,,,,,,,
,,,,,356794,f,y,r,n,13,0,2025-04-06_19h19.02.624,VisualSearchFaces,2024.2.4,Win32,59.88023952,,,,,,,,447.0433,447.1424,447.1424,449.142,practice2,j,1,0.4769,,0,11,11,3,1,1,bottom_left,neutral,friendly,,,,,,,,,,,,,,,,
,,,,,356794,f,y,r,n,13,0,2025-04-06_19h19.02.624,VisualSearchFaces,2024.2.4,Win32,59.88023952,,,,,,,,450.1436,450.2588,450.2589,452.2585,practice2,f,0,0.5805,,0,12,12,12,1,1,top_right,friendly,neutral,,,,,,,,,,,,,,,,
,,,,,356794,f,y,r,n,13,0,2025-04-06_19h19.02.624,VisualSearchFaces,2024.2.4,Win32,59.88023952,,,,,,,,453.26,453.3751,453.3751,455.3751,practice2,f,1,0.5133,,0,13,13,22,1,0,top_right,neutral,no_target,,,,,,,,,,,,,,,,
,,,,,356794,f,y,r,n,13,0,2025-04-06_19h19.02.624,VisualSearchFaces,2024.2.4,Win32,59.88023952,,,,,,,,456.3761,456.4915,456.4916,458.4915,practice2,j,1,0.4143,,0,14,14,19,1,1,bottom_right,threatening,neutral,,,,,,,,,,,,,,,,
,,,,,356794,f,y,r,n,13,0,2025-04-06_19h19.02.624,VisualSearchFaces,2024.2.4,Win32,59.88023952,,,,,,,,459.4936,459.6082,459.6082,461.608,practice2,j,1,0.4686,,0,15,15,1,1,1,top_left,neutral,friendly,,,,,,,,,,,,,,,,
,,,,,356794,f,y,r,n,13,0,2025-04-06_19h19.02.624,VisualSearchFaces,2024.2.4,Win32,59.88023952,,,,,,,,462.6101,462.7246,462.7247,464.7245,practice2,j,1,0.3903,,0,16,16,7,1,1,top_right,neutral,threatening,,,,,,,,,,,,,,,,
,,,,,356794,f,y,r,n,13,0,2025-04-06_19h19.02.624,VisualSearchFaces,2024.2.4,Win32,59.88023952,,,,,,,,465.7255,465.8413,465.8413,467.8412,practice2,j,1,0.412,,0,17,17,5,1,1,centre,neutral,threatening,,,,,,,,,,,,,,,,
,,,,,356794,f,y,r,n,13,0,2025-04-06_19h19.02.624,VisualSearchFaces,2024.2.4,Win32,59.88023952,,,,,,,,468.8423,468.9577,468.9578,470.9575,practice2,j,0,0.5435,,0,18,18,23,1,0,bottom_left,neutral,no_target,,,,,,,,,,,,,,,,
,,,,,356794,f,y,r,n,13,0,2025-04-06_19h19.02.624,VisualSearchFaces,2024.2.4,Win32,59.88023952,,,,,,,,471.9586,472.0741,472.0741,474.0741,practice2,j,1,0.6668,,0,19,19,17,1,1,top_right,threatening,neutral,,,,,,,,,,,,,,,,
,,,,,356794,f,y,r,n,13,0,2025-04-06_19h19.02.624,VisualSearchFaces,2024.2.4,Win32,59.88023952,,,,,,,,475.076,475.1908,475.1908,477.1906,practice2,j,0,0.466,,0,20,20,20,1,0,centre,neutral,no_target,,,,,,,,,,,,,,,,
,,,,,356794,f,y,r,n,13,0,2025-04-06_19h19.02.624,VisualSearchFaces,2024.2.4,Win32,59.88023952,,,,,,,,478.1919,478.3073,478.3073,480.307,practice2,f,0,0.6502,,0,21,21,13,1,1,bottom_left,friendly,neutral,,,,,,,,,,,,,,,,
,,,,,356794,f,y,r,n,13,0,2025-04-06_19h19.02.624,VisualSearchFaces,2024.2.4,Win32,59.88023952,,,,,,,,481.3089,481.4072,481.4073,483.4074,practice2,f,1,0.4665,,0,22,22,37,1,0,top_right,threatening,no_target,,,,,,,,,,,,,,,,
,,,,,356794,f,y,r,n,13,0,2025-04-06_19h19.02.624,VisualSearchFaces,2024.2.4,Win32,59.88023952,,,,,,,,484.408,484.5069,484.5069,486.5066,practice2,f,1,0.433,,0,23,23,33,1,0,bottom_left,friendly,no_target,,,,,,,,,,,,,,,,
,,,,,356794,f,y,r,n,13,0,2025-04-06_19h19.02.624,VisualSearchFaces,2024.2.4,Win32,59.88023952,,,,,,,,487.5079,487.6068,487.6069,489.6067,practice2,f,1,0.471,,0,24,24,36,1,0,top_left,threatening,no_target,,,,,,,,,,,,,,,,
,,,,,356794,f,y,r,n,13,0,2025-04-06_19h19.02.624,VisualSearchFaces,2024.2.4,Win32,59.88023952,,,,,,,,490.6082,490.7066,490.7067,492.7063,practice2,j,1,0.4553,,0,25,25,16,1,1,top_left,threatening,neutral,,,,,,,,,,,,,,,,
,,,,,356794,f,y,r,n,13,0,2025-04-06_19h19.02.624,VisualSearchFaces,2024.2.4,Win32,59.88023952,,,,,,,,493.7082,493.8231,493.8231,495.8228,practice2,f,1,0.8466,,0,26,26,24,1,0,bottom_right,neutral,no_target,,,,,,,,,,,,,,,,
,,,,,356794,f,y,r,n,13,0,2025-04-06_19h19.02.624,VisualSearchFaces,2024.2.4,Win32,59.88023952,,,,,,,,496.8242,496.9395,496.9396,498.9394,practice2,f,1,0.4573,,0,27,27,30,1,0,centre,friendly,no_target,,,,,,,,,,,,,,,,
,,,,,356794,f,y,r,n,13,0,2025-04-06_19h19.02.624,VisualSearchFaces,2024.2.4,Win32,59.88023952,,,,,,,,499.9404,500.056,500.056,502.056,practice2,f,1,0.4517,,0,28,28,25,1,0,centre,neutral,no_target,,,,,,,,,,,,,,,,
,,,,,356794,f,y,r,n,13,0,2025-04-06_19h19.02.624,VisualSearchFaces,2024.2.4,Win32,59.88023952,,,,,,,,503.0571,503.1728,503.1728,505.1723,practice2,j,1,0.4157,,0,29,29,14,1,1,bottom_right,friendly,neutral,,,,,,,,,,,,,,,,
,,,,,356794,f,y,r,n,13,0,2025-04-06_19h19.02.624,VisualSearchFaces,2024.2.4,Win32,59.88023952,,,,,,,,506.1745,506.289,506.2891,508.2891,practice2,j,1,0.3633,,0,30,30,15,1,1,centre,threatening,neutral,,,,,,,,,,,,,,,,
,,,,,356794,f,y,r,n,13,0,2025-04-06_19h19.02.624,VisualSearchFaces,2024.2.4,Win32,59.88023952,,,,,,,,509.2909,509.4055,509.4055,511.4054,practice2,f,1,0.5506,,0,31,31,27,1,0,top_right,neutral,no_target,,,,,,,,,,,,,,,,
,,,,,356794,f,y,r,n,13,0,2025-04-06_19h19.02.624,VisualSearchFaces,2024.2.4,Win32,59.88023952,,,,,,,,512.4067,512.522,512.522,514.5221,practice2,j,1,0.6664,,0,32,32,11,1,1,top_left,friendly,neutral,,,,,,,,,,,,,,,,
,,,,,356794,f,y,r,n,13,0,2025-04-06_19h19.02.624,VisualSearchFaces,2024.2.4,Win32,59.88023952,,,,,,,,515.5237,515.6385,515.6386,517.6385,practice2,f,1,0.4537,,0,33,33,31,1,0,top_left,friendly,no_target,,,,,,,,,,,,,,,,
,,,,,356794,f,y,r,n,13,0,2025-04-06_19h19.02.624,VisualSearchFaces,2024.2.4,Win32,59.88023952,,,,,,,,518.6393,518.7553,518.7553,520.7549,practice2,j,0,0.4147,,0,34,34,28,1,0,bottom_left,neutral,no_target,,,,,,,,,,,,,,,,
,,,,,356794,f,y,r,n,13,0,2025-04-06_19h19.02.624,VisualSearchFaces,2024.2.4,Win32,59.88023952,,,,,,,,521.7561,521.8715,521.8715,523.8715,practice2,f,1,0.6089,,0,35,35,21,1,0,top_left,neutral,no_target,,,,,,,,,,,,,,,,
,,,,,356794,f,y,r,n,13,0,2025-04-06_19h19.02.624,VisualSearchFaces,2024.2.4,Win32,59.88023952,,,,,,,,524.8731,524.988,524.988,526.9881,practice2,j,1,0.5848,,0,36,36,6,1,1,top_left,neutral,threatening,,,,,,,,,,,,,,,,
,,,,,356794,f,y,r,n,13,0,2025-04-06_19h19.02.624,VisualSearchFaces,2024.2.4,Win32,59.88023952,,,,,,,,527.989,528.1047,528.1048,530.1046,practice2,f,1,0.7528,,0,37,37,39,1,0,bottom_right,threatening,no_target,,,,,,,,,,,,,,,,
,,,,,356794,f,y,r,n,13,0,2025-04-06_19h19.02.624,VisualSearchFaces,2024.2.4,Win32,59.88023952,,,,,,,,531.1058,531.2212,531.2212,533.221,practice2,j,1,0.428,,0,38,38,9,1,1,bottom_right,neutral,threatening,,,,,,,,,,,,,,,,
,,,,,356794,f,y,r,n,13,0,2025-04-06_19h19.02.624,VisualSearchFaces,2024.2.4,Win32,59.88023952,,,,,,,,534.2219,534.3213,534.3213,536.3208,practice2,f,1,0.4963,,0,39,39,34,1,0,bottom_right,friendly,no_target,,,,,,,,,,,,,,,,
,,,,,356794,f,y,r,n,13,0,2025-04-06_19h19.02.624,VisualSearchFaces,2024.2.4,Win32,59.88023952,,,632.9192,636.3324,space,3.3981,,637.3335,637.449,637.449,639.4493,block1,f,0,0.9082,,0,0,0,14,1,1,bottom_right,friendly,neutral,536.3224,632.9162,space,96.5815,,,,,,,,,,,,
,,,,,356794,f,y,r,n,13,0,2025-04-06_19h19.02.624,VisualSearchFaces,2024.2.4,Win32,59.88023952,,,,,,,,640.4507,640.5654,640.5655,642.5653,block1,j,1,0.7236,,0,1,1,4,1,1,bottom_right,neutral,friendly,,,,,,,,,,,,,,,,
,,,,,356794,f,y,r,n,13,0,2025-04-06_19h19.02.624,VisualSearchFaces,2024.2.4,Win32,59.88023952,,,,,,,,643.5674,643.682,643.6821,645.6819,block1,f,1,0.4768,,0,2,2,38,1,0,bottom_left,threatening,no_target,,,,,,,,,,,,,,,,
,,,,,356794,f,y,r,n,13,0,2025-04-06_19h19.02.624,VisualSearchFaces,2024.2.4,Win32,59.88023952,,,,,,,,646.6829,646.7818,646.7819,648.7818,block1,j,1,0.5735,,0,3,3,6,1,1,top_left,neutral,threatening,,,,,,,,,,,,,,,,
,,,,,356794,f,y,r,n,13,0,2025-04-06_19h19.02.624,VisualSearchFaces,2024.2.4,Win32,59.88023952,,,,,,,,649.7828,649.8984,649.8984,651.8983,block1,f,1,0.4707,,0,4,4,25,1,0,centre,neutral,no_target,,,,,,,,,,,,,,,,
,,,,,356794,f,y,r,n,13,0,2025-04-06_19h19.02.624,VisualSearchFaces,2024.2.4,Win32,59.88023952,,,,,,,,652.8994,653.0149,653.0149,655.0147,block1,f,1,0.4111,,0,5,5,27,1,0,top_right,neutral,no_target,,,,,,,,,,,,,,,,
,,,,,356794,f,y,r,n,13,0,2025-04-06_19h19.02.624,VisualSearchFaces,2024.2.4,Win32,59.88023952,,,,,,,,656.016,656.1313,656.1313,658.1313,block1,j,1,0.4565,,0,6,6,3,1,1,bottom_left,neutral,friendly,,,,,,,,,,,,,,,,
,,,,,356794,f,y,r,n,13,0,2025-04-06_19h19.02.624,VisualSearchFaces,2024.2.4,Win32,59.88023952,,,,,,,,659.1323,659.2479,659.2479,661.2479,block1,f,1,0.5832,,0,7,7,35,1,0,centre,threatening,no_target,,,,,,,,,,,,,,,,
,,,,,356794,f,y,r,n,13,0,2025-04-06_19h19.02.624,VisualSearchFaces,2024.2.4,Win32,59.88023952,,,,,,,,662.2488,662.3646,662.3646,664.3644,block1,f,1,0.5001,,0,8,8,32,1,0,top_right,friendly,no_target,,,,,,,,,,,,,,,,
,,,,,356794,f,y,r,n,13,0,2025-04-06_19h19.02.624,VisualSearchFaces,2024.2.4,Win32,59.88023952,,,,,,,,665.3661,665.4809,665.481,667.481,block1,f,1,0.4796,,0,9,9,22,1,0,top_right,neutral,no_target,,,,,,,,,,,,,,,,
,,,,,356794,f,y,r,n,13,0,2025-04-06_19h19.02.624,VisualSearchFaces,2024.2.4,Win32,59.88023952,,,,,,,,668.4823,668.5974,668.5974,670.5973,block1,j,1,0.2585,,0,10,10,5,1,1,centre,neutral,threatening,,,,,,,,,,,,,,,,
,,,,,356794,f,y,r,n,13,0,2025-04-06_19h19.02.624,VisualSearchFaces,2024.2.4,Win32,59.88023952,,,,,,,,671.5988,671.7138,671.7139,673.7138,block1,f,1,0.4077,,0,11,11,33,1,0,bottom_left,friendly,no_target,,,,,,,,,,,,,,,,
,,,,,356794,f,y,r,n,13,0,2025-04-06_19h19.02.624,VisualSearchFaces,2024.2.4,Win32,59.88023952,,,,,,,,674.7148,674.8139,674.814,676.8134,block1,f,1,0.477,,0,12,12,37,1,0,top_right,threatening,no_target,,,,,,,,,,,,,,,,
,,,,,356794,f,y,r,n,13,0,2025-04-06_19h19.02.624,VisualSearchFaces,2024.2.4,Win32,59.88023952,,,,,,,,677.8145,677.9136,677.9136,679.9136,block1,f,0,0.5512,,0,13,13,13,1,1,bottom_left,friendly,neutral,,,,,,,,,,,,,,,,
,,,,,356794,f,y,r,n,13,0,2025-04-06_19h19.02.624,VisualSearchFaces,2024.2.4,Win32,59.88023952,,,,,,,,680.9147,681.0135,681.0135,683.0132,block1,f,1,0.5084,,0,14,14,30,1,0,centre,friendly,no_target,,,,,,,,,,,,,,,,
,,,,,356794,f,y,r,n,13,0,2025-04-06_19h19.02.624,VisualSearchFaces,2024.2.4,Win32,59.88023952,,,,,,,,684.0155,684.13,684.13,686.1297,block1,f,1,0.4931,,0,15,15,20,1,0,centre,neutral,no_target,,,,,,,,,,,,,,,,
,,,,,356794,f,y,r,n,13,0,2025-04-06_19h19.02.624,VisualSearchFaces,2024.2.4,Win32,59.88023952,,,,,,,,687.1307,687.2299,687.2299,689.2296,block1,f,1,0.4661,,0,16,16,36,1,0,top_left,threatening,no_target,,,,,,,,,,,,,,,,
,,,,,356794,f,y,r,n,13,0,2025-04-06_19h19.02.624,VisualSearchFaces,2024.2.4,Win32,59.88023952,,,,,,,,690.2307,690.3296,690.3297,692.3294,block1,j,1,0.7001,,0,17,17,7,1,1,top_right,neutral,threatening,,,,,,,,,,,,,,,,
,,,,,356794,f,y,r,n,13,0,2025-04-06_19h19.02.624,VisualSearchFaces,2024.2.4,Win32,59.88023952,,,,,,,,693.3309,693.446,693.446,695.4459,block1,f,1,0.422,,0,18,18,29,1,0,bottom_right,neutral,no_target,,,,,,,,,,,,,,,,
,,,,,356794,f,y,r,n,13,0,2025-04-06_19h19.02.624,VisualSearchFaces,2024.2.4,Win32,59.88023952,,,,,,,,696.4472,696.5625,696.5625,698.5626,block1,f,0,0.7248,,0,19,19,18,1,1,bottom_left,threatening,neutral,,,,,,,,,,,,,,,,
,,,,,356794,f,y,r,n,13,0,2025-04-06_19h19.02.624,VisualSearchFaces,2024.2.4,Win32,59.88023952,,,,,,,,699.5652,699.6791,699.6792,701.6789,block1,j,1,0.4506,,0,20,20,0,1,1,centre,neutral,friendly,,,,,,,,,,,,,,,,
,,,,,356794,f,y,r,n,13,0,2025-04-06_19h19.02.624,VisualSearchFaces,2024.2.4,Win32,59.88023952,,,,,,,,702.6797,702.7955,702.7956,704.7954,block1,f,1,0.5177,,0,21,21,21,1,0,top_left,neutral,no_target,,,,,,,,,,,,,,,,
,,,,,356794,f,y,r,n,13,0,2025-04-06_19h19.02.624,VisualSearchFaces,2024.2.4,Win32,59.88023952,,,,,,,,705.797,705.9121,705.9121,707.9119,block1,j,1,0.6851,,0,22,22,2,1,1,top_right,neutral,friendly,,,,,,,,,,,,,,,,
,,,,,356794,f,y,r,n,13,0,2025-04-06_19h19.02.624,VisualSearchFaces,2024.2.4,Win32,59.88023952,,,,,,,,708.9132,709.0288,709.0288,711.0286,block1,j,1,0.5917,,0,23,23,1,1,1,top_left,neutral,friendly,,,,,,,,,,,,,,,,
,,,,,356794,f,y,r,n,13,0,2025-04-06_19h19.02.624,VisualSearchFaces,2024.2.4,Win32,59.88023952,,,,,,,,712.0296,712.1453,712.1453,714.145,block1,j,1,0.6928,,0,24,24,19,1,1,bottom_right,threatening,neutral,,,,,,,,,,,,,,,,
,,,,,356794,f,y,r,n,13,0,2025-04-06_19h19.02.624,VisualSearchFaces,2024.2.4,Win32,59.88023952,,,,,,,,715.1467,715.2615,715.2615,717.2616,block1,j,1,0.4605,,0,25,25,10,1,1,centre,friendly,neutral,,,,,,,,,,,,,,,,
,,,,,356794,f,y,r,n,13,0,2025-04-06_19h19.02.624,VisualSearchFaces,2024.2.4,Win32,59.88023952,,,,,,,,718.2625,718.3615,718.3616,720.3615,block1,f,1,0.5685,,0,26,26,26,1,0,top_left,neutral,no_target,,,,,,,,,,,,,,,,
,,,,,356794,f,y,r,n,13,0,2025-04-06_19h19.02.624,VisualSearchFaces,2024.2.4,Win32,59.88023952,,,,,,,,721.3629,721.462,721.462,723.4612,block1,f,0,1.0658,,0,27,27,8,1,1,bottom_left,neutral,threatening,,,,,,,,,,,,,,,,
,,,,,356794,f,y,r,n,13,0,2025-04-06_19h19.02.624,VisualSearchFaces,2024.2.4,Win32,59.88023952,,,,,,,,724.4622,724.5779,724.578,726.5776,block1,f,0,0.9074,,0,28,28,17,1,1,top_right,threatening,neutral,,,,,,,,,,,,,,,,
,,,,,356794,f,y,r,n,13,0,2025-04-06_19h19.02.624,VisualSearchFaces,2024.2.4,Win32,59.88023952,,,,,,,,727.5791,727.6779,727.678,729.678,block1,j,1,0.8536,,0,29,29,15,1,1,centre,threatening,neutral,,,,,,,,,,,,,,,,
,,,,,356794,f,y,r,n,13,0,2025-04-06_19h19.02.624,VisualSearchFaces,2024.2.4,Win32,59.88023952,,,,,,,,730.6785,730.7777,730.7778,732.7773,block1,j,1,0.5879,,0,30,30,12,1,1,top_right,friendly,neutral,,,,,,,,,,,,,,,,
,,,,,356794,f,y,r,n,13,0,2025-04-06_19h19.02.624,VisualSearchFaces,2024.2.4,Win32,59.88023952,,,,,,,,733.7792,733.894,733.8941,735.894,block1,f,1,0.5234,,0,31,31,31,1,0,top_left,friendly,no_target,,,,,,,,,,,,,,,,
,,,,,356794,f,y,r,n,13,0,2025-04-06_19h19.02.624,VisualSearchFaces,2024.2.4,Win32,59.88023952,,,,,,,,736.8956,737.0107,737.0107,739.0104,block1,j,1,0.6953,,0,32,32,11,1,1,top_left,friendly,neutral,,,,,,,,,,,,,,,,
,,,,,356794,f,y,r,n,13,0,2025-04-06_19h19.02.624,VisualSearchFaces,2024.2.4,Win32,59.88023952,,,,,,,,740.012,740.1271,740.1271,742.1269,block1,j,1,1.0122,,0,33,33,9,1,1,bottom_right,neutral,threatening,,,,,,,,,,,,,,,,
,,,,,356794,f,y,r,n,13,0,2025-04-06_19h19.02.624,VisualSearchFaces,2024.2.4,Win32,59.88023952,,,,,,,,743.1277,743.2436,743.2437,745.2435,block1,f,1,0.4579,,0,34,34,23,1,0,bottom_left,neutral,no_target,,,,,,,,,,,,,,,,
,,,,,356794,f,y,r,n,13,0,2025-04-06_19h19.02.624,VisualSearchFaces,2024.2.4,Win32,59.88023952,,,,,,,,746.2449,746.3439,746.3439,748.3434,block1,j,1,0.7821,,0,35,35,16,1,1,top_left,threatening,neutral,,,,,,,,,,,,,,,,
,,,,,356794,f,y,r,n,13,0,2025-04-06_19h19.02.624,VisualSearchFaces,2024.2.4,Win32,59.88023952,,,,,,,,749.3443,749.4599,749.4599,751.4598,block1,f,1,0.5514,,0,36,36,24,1,0,bottom_right,neutral,no_target,,,,,,,,,,,,,,,,
,,,,,356794,f,y,r,n,13,0,2025-04-06_19h19.02.624,VisualSearchFaces,2024.2.4,Win32,59.88023952,,,,,,,,752.4606,752.5596,752.5597,754.5598,block1,f,1,0.7028,,0,37,37,39,1,0,bottom_right,threatening,no_target,,,,,,,,,,,,,,,,
,,,,,356794,f,y,r,n,13,0,2025-04-06_19h19.02.624,VisualSearchFaces,2024.2.4,Win32,59.88023952,,,,,,,,755.5609,755.6596,755.6596,757.6598,block1,f,1,0.5454,,0,38,38,28,1,0,bottom_left,neutral,no_target,,,,,,,,,,,,,,,,
,,,,,356794,f,y,r,n,13,0,2025-04-06_19h19.02.624,VisualSearchFaces,2024.2.4,Win32,59.88023952,,,,,,,,758.6606,758.776,758.7761,760.7759,block1,f,1,0.4444,,0,39,39,34,1,0,bottom_right,friendly,no_target,,,,,,,,,,,,,,,,
,,,,,356794,f,y,r,n,13,0,2025-04-06_19h19.02.624,VisualSearchFaces,2024.2.4,Win32,59.88023952,,,,,,,,761.7775,761.8927,761.8927,763.8927,block1,j,1,0.4816,,1,0,40,13,1,1,bottom_left,friendly,neutral,,,,,,,,,,,,,,,,
,,,,,356794,f,y,r,n,13,0,2025-04-06_19h19.02.624,VisualSearchFaces,2024.2.4,Win32,59.88023952,,,,,,,,764.8935,765.0093,765.0093,767.009,block1,j,1,0.7962,,1,1,41,9,1,1,bottom_right,neutral,threatening,,,,,,,,,,,,,,,,
,,,,,356794,f,y,r,n,13,0,2025-04-06_19h19.02.624,VisualSearchFaces,2024.2.4,Win32,59.88023952,,,,,,,,768.0101,768.109,768.1091,770.1087,block1,f,1,0.7046,,1,2,42,35,1,0,centre,threatening,no_target,,,,,,,,,,,,,,,,
,,,,,356794,f,y,r,n,13,0,2025-04-06_19h19.02.624,VisualSearchFaces,2024.2.4,Win32,59.88023952,,,,,,,,771.1097,771.2256,771.2256,773.2254,block1,f,1,0.6328,,1,3,43,21,1,0,top_left,neutral,no_target,,,,,,,,,,,,,,,,
,,,,,356794,f,y,r,n,13,0,2025-04-06_19h19.02.624,VisualSearchFaces,2024.2.4,Win32,59.88023952,,,,,,,,774.2263,774.3254,774.3254,776.3255,block1,f,1,0.5962,,1,4,44,27,1,0,top_right,neutral,no_target,,,,,,,,,,,,,,,,
,,,,,356794,f,y,r,n,13,0,2025-04-06_19h19.02.624,VisualSearchFaces,2024.2.4,Win32,59.88023952,,,,,,,,777.3263,777.4421,777.4421,779.442,block1,j,1,0.4295,,1,5,45,10,1,1,centre,friendly,neutral,,,,,,,,,,,,,,,,
,,,,,356794,f,y,r,n,13,0,2025-04-06_19h19.02.624,VisualSearchFaces,2024.2.4,Win32,59.88023952,,,,,,,,780.4426,780.5582,780.5582,782.5583,block1,f,1,0.5215,,1,6,46,38,1,0,bottom_left,threatening,no_target,,,,,,,,,,,,,,,,
,,,,,356794,f,y,r,n,13,0,2025-04-06_19h19.02.624,VisualSearchFaces,2024.2.4,Win32,59.88023952,,,,,,,,783.5594,783.6747,783.6747,785.6746,block1,j,1,0.6126,,1,7,47,3,1,1,bottom_left,neutral,friendly,,,,,,,,,,,,,,,,
,,,,,356794,f,y,r,n,13,0,2025-04-06_19h19.02.624,VisualSearchFaces,2024.2.4,Win32,59.88023952,,,,,,,,786.6758,786.7914,786.7914,788.7912,block1,f,1,0.5353,,1,8,48,29,1,0,bottom_right,neutral,no_target,,,,,,,,,,,,,,,,
,,,,,356794,f,y,r,n,13,0,2025-04-06_19h19.02.624,VisualSearchFaces,2024.2.4,Win32,59.88023952,,,,,,,,789.7924,789.8912,789.8913,791.8911,block1,f,0,0.8326,,1,9,49,5,1,1,centre,neutral,threatening,,,,,,,,,,,,,,,,
,,,,,356794,f,y,r,n,13,0,2025-04-06_19h19.02.624,VisualSearchFaces,2024.2.4,Win32,59.88023952,,,,,,,,792.8921,792.991,792.991,794.9909,block1,j,1,0.4274,,1,10,50,4,1,1,bottom_right,neutral,friendly,,,,,,,,,,,,,,,,
,,,,,356794,f,y,r,n,13,0,2025-04-06_19h19.02.624,VisualSearchFaces,2024.2.4,Win32,59.88023952,,,,,,,,795.9928,796.0909,796.0909,798.0905,block1,f,1,0.4246,,1,11,51,30,1,0,centre,friendly,no_target,,,,,,,,,,,,,,,,
,,,,,356794,f,y,r,n,13,0,2025-04-06_19h19.02.624,VisualSearchFaces,2024.2.4,Win32,59.88023952,,,,,,,,799.0926,799.2073,799.2073,801.2071,block1,j,1,0.6381,,1,12,52,6,1,1,top_left,neutral,threatening,,,,,,,,,,,,,,,,
,,,,,356794,f,y,r,n,13,0,2025-04-06_19h19.02.624,VisualSearchFaces,2024.2.4,Win32,59.88023952,,,,,,,,802.2083,802.3239,802.3239,804.3236,block1,j,1,0.5004,,1,13,53,7,1,1,top_right,neutral,threatening,,,,,,,,,,,,,,,,
,,,,,356794,f,y,r,n,13,0,2025-04-06_19h19.02.624,VisualSearchFaces,2024.2.4,Win32,59.88023952,,,,,,,,805.325,805.4402,805.4402,807.4403,block1,j,1,0.5112,,1,14,54,12,1,1,top_right,friendly,neutral,,,,,,,,,,,,,,,,
,,,,,356794,f,y,r,n,13,0,2025-04-06_19h19.02.624,VisualSearchFaces,2024.2.4,Win32,59.88023952,,,,,,,,808.4413,808.5569,808.557,810.5567,block1,f,1,0.5773,,1,15,55,23,1,0,bottom_left,neutral,no_target,,,,,,,,,,,,,,,,
,,,,,356794,f,y,r,n,13,0,2025-04-06_19h19.02.624,VisualSearchFaces,2024.2.4,Win32,59.88023952,,,,,,,,811.5577,811.6738,811.6739,813.6731,block1,f,1,0.4944,,1,16,56,33,1,0,bottom_left,friendly,no_target,,,,,,,,,,,,,,,,
,,,,,356794,f,y,r,n,13,0,2025-04-06_19h19.02.624,VisualSearchFaces,2024.2.4,Win32,59.88023952,,,,,,,,814.6741,814.7898,814.7898,816.7897,block1,f,1,0.424,,1,17,57,36,1,0,top_left,threatening,no_target,,,,,,,,,,,,,,,,
,,,,,356794,f,y,r,n,13,0,2025-04-06_19h19.02.624,VisualSearchFaces,2024.2.4,Win32,59.88023952,,,,,,,,817.7911,817.9064,817.9064,819.9062,block1,f,0,0.4877,,1,18,58,8,1,1,bottom_left,neutral,threatening,,,,,,,,,,,,,,,,
,,,,,356794,f,y,r,n,13,0,2025-04-06_19h19.02.624,VisualSearchFaces,2024.2.4,Win32,59.88023952,,,,,,,,820.9069,821.0229,821.0229,823.0226,block1,j,1,0.3722,,1,19,59,1,1,1,top_left,neutral,friendly,,,,,,,,,,,,,,,,
,,,,,356794,f,y,r,n,13,0,2025-04-06_19h19.02.624,VisualSearchFaces,2024.2.4,Win32,59.88023952,,,,,,,,824.0246,824.1394,824.1395,826.1392,block1,f,1,0.6033,,1,20,60,26,1,0,top_left,neutral,no_target,,,,,,,,,,,,,,,,
,,,,,356794,f,y,r,n,13,0,2025-04-06_19h19.02.624,VisualSearchFaces,2024.2.4,Win32,59.88023952,,,,,,,,827.1404,827.2559,827.2559,829.2557,block1,f,1,0.5356,,1,21,61,31,1,0,top_left,friendly,no_target,,,,,,,,,,,,,,,,
,,,,,356794,f,y,r,n,13,0,2025-04-06_19h19.02.624,VisualSearchFaces,2024.2.4,Win32,59.88023952,,,,,,,,830.257,830.3558,830.3558,832.3556,block1,j,1,0.4164,,1,22,62,2,1,1,top_right,neutral,friendly,,,,,,,,,,,,,,,,
,,,,,356794,f,y,r,n,13,0,2025-04-06_19h19.02.624,VisualSearchFaces,2024.2.4,Win32,59.88023952,,,,,,,,833.3572,833.4722,833.4722,835.4721,block1,f,1,0.4409,,1,23,63,37,1,0,top_right,threatening,no_target,,,,,,,,,,,,,,,,
,,,,,356794,f,y,r,n,13,0,2025-04-06_19h19.02.624,VisualSearchFaces,2024.2.4,Win32,59.88023952,,,,,,,,836.4732,836.5886,836.5886,838.5886,block1,f,1,0.4732,,1,24,64,25,1,0,centre,neutral,no_target,,,,,,,,,,,,,,,,
,,,,,356794,f,y,r,n,13,0,2025-04-06_19h19.02.624,VisualSearchFaces,2024.2.4,Win32,59.88023952,,,,,,,,839.5894,839.7052,839.7052,841.7052,block1,f,1,0.3999,,1,25,65,20,1,0,centre,neutral,no_target,,,,,,,,,,,,,,,,
,,,,,356794,f,y,r,n,13,0,2025-04-06_19h19.02.624,VisualSearchFaces,2024.2.4,Win32,59.88023952,,,,,,,,842.7063,842.8217,842.8217,844.8216,block1,f,1,0.6208,,1,26,66,39,1,0,bottom_right,threatening,no_target,,,,,,,,,,,,,,,,
,,,,,356794,f,y,r,n,13,0,2025-04-06_19h19.02.624,VisualSearchFaces,2024.2.4,Win32,59.88023952,,,,,,,,845.8229,845.9384,845.9384,847.9382,block1,j,1,0.5518,,1,27,67,16,1,1,top_left,threatening,neutral,,,,,,,,,,,,,,,,
,,,,,356794,f,y,r,n,13,0,2025-04-06_19h19.02.624,VisualSearchFaces,2024.2.4,Win32,59.88023952,,,,,,,,848.9391,849.0382,849.0382,851.0379,block1,f,1,0.5082,,1,28,68,34,1,0,bottom_right,friendly,no_target,,,,,,,,,,,,,,,,
,,,,,356794,f,y,r,n,13,0,2025-04-06_19h19.02.624,VisualSearchFaces,2024.2.4,Win32,59.88023952,,,,,,,,852.0394,852.1545,852.1545,854.1544,block1,j,1,0.4248,,1,29,69,0,1,1,centre,neutral,friendly,,,,,,,,,,,,,,,,
,,,,,356794,f,y,r,n,13,0,2025-04-06_19h19.02.624,VisualSearchFaces,2024.2.4,Win32,59.88023952,,,,,,,,855.1551,855.271,855.271,857.271,block1,f,0,0.68,,1,30,70,14,1,1,bottom_right,friendly,neutral,,,,,,,,,,,,,,,,
,,,,,356794,f,y,r,n,13,0,2025-04-06_19h19.02.624,VisualSearchFaces,2024.2.4,Win32,59.88023952,,,,,,,,858.2719,858.3876,858.3877,860.3876,block1,j,1,0.4139,,1,31,71,15,1,1,centre,threatening,neutral,,,,,,,,,,,,,,,,
,,,,,356794,f,y,r,n,13,0,2025-04-06_19h19.02.624,VisualSearchFaces,2024.2.4,Win32,59.88023952,,,,,,,,861.3891,861.504,861.504,863.504,block1,f,1,0.4468,,1,32,72,28,1,0,bottom_left,neutral,no_target,,,,,,,,,,,,,,,,
,,,,,356794,f,y,r,n,13,0,2025-04-06_19h19.02.624,VisualSearchFaces,2024.2.4,Win32,59.88023952,,,,,,,,864.5058,864.6205,864.6205,866.6204,block1,j,1,0.6181,,1,33,73,17,1,1,top_right,threatening,neutral,,,,,,,,,,,,,,,,
,,,,,356794,f,y,r,n,13,0,2025-04-06_19h19.02.624,VisualSearchFaces,2024.2.4,Win32,59.88023952,,,,,,,,867.6221,867.7209,867.7209,869.7202,block1,j,1,0.5989,,1,34,74,11,1,1,top_left,friendly,neutral,,,,,,,,,,,,,,,,
,,,,,356794,f,y,r,n,13,0,2025-04-06_19h19.02.624,VisualSearchFaces,2024.2.4,Win32,59.88023952,,,,,,,,870.7213,870.8372,870.8373,872.8369,block1,f,1,0.6591,,1,35,75,24,1,0,bottom_right,neutral,no_target,,,,,,,,,,,,,,,,
,,,,,356794,f,y,r,n,13,0,2025-04-06_19h19.02.624,VisualSearchFaces,2024.2.4,Win32,59.88023952,,,,,,,,873.8378,873.9369,873.937,875.9365,block1,f,1,0.5836,,1,36,76,22,1,0,top_right,neutral,no_target,,,,,,,,,,,,,,,,
,,,,,356794,f,y,r,n,13,0,2025-04-06_19h19.02.624,VisualSearchFaces,2024.2.4,Win32,59.88023952,,,,,,,,876.9381,877.0369,877.037,879.0365,block1,j,1,0.4841,,1,37,77,19,1,1,bottom_right,threatening,neutral,,,,,,,,,,,,,,,,
,,,,,356794,f,y,r,n,13,0,2025-04-06_19h19.02.624,VisualSearchFaces,2024.2.4,Win32,59.88023952,,,,,,,,880.0383,880.1532,880.1532,882.1531,block1,j,1,0.6492,,1,38,78,18,1,1,bottom_left,threatening,neutral,,,,,,,,,,,,,,,,
,,,,,356794,f,y,r,n,13,0,2025-04-06_19h19.02.624,VisualSearchFaces,2024.2.4,Win32,59.88023952,,,,,,,,883.1544,883.2695,883.2695,885.2694,block1,f,1,0.4545,,1,39,79,32,1,0,top_right,friendly,no_target,,,,,,,,,,,,,,,,
,,,,,356794,f,y,r,n,13,0,2025-04-06_19h19.02.624,VisualSearchFaces,2024.2.4,Win32,59.88023952,,,910.4382,914.1851,space,3.7281,,915.1856,915.3014,915.3014,917.3014,block2,j,1,0.5042,,0,0,0,7,1,1,top_right,neutral,threatening,885.2706,910.4351,space,25.1501,,,,,,,,,,,,
,,,,,356794,f,y,r,n,13,0,2025-04-06_19h19.02.624,VisualSearchFaces,2024.2.4,Win32,59.88023952,,,,,,,,918.3025,918.4179,918.418,920.4179,block2,f,1,0.499,,0,1,1,34,1,0,bottom_right,friendly,no_target,,,,,,,,,,,,,,,,
,,,,,356794,f,y,r,n,13,0,2025-04-06_19h19.02.624,VisualSearchFaces,2024.2.4,Win32,59.88023952,,,,,,,,921.4196,921.5177,921.5178,923.5175,block2,j,1,0.5851,,0,2,2,2,1,1,top_right,neutral,friendly,,,,,,,,,,,,,,,,
,,,,,356794,f,y,r,n,13,0,2025-04-06_19h19.02.624,VisualSearchFaces,2024.2.4,Win32,59.88023952,,,,,,,,924.5185,924.6176,924.6176,926.6174,block2,j,1,0.4956,,0,3,3,1,1,1,top_left,neutral,friendly,,,,,,,,,,,,,,,,
,,,,,356794,f,y,r,n,13,0,2025-04-06_19h19.02.624,VisualSearchFaces,2024.2.4,Win32,59.88023952,,,,,,,,927.6186,927.7175,927.7175,929.7173,block2,j,1,0.6676,,0,4,4,16,1,1,top_left,threatening,neutral,,,,,,,,,,,,,,,,
,,,,,356794,f,y,r,n,13,0,2025-04-06_19h19.02.624,VisualSearchFaces,2024.2.4,Win32,59.88023952,,,,,,,,930.7184,930.8338,930.8338,932.8339,block2,j,1,0.5171,,0,5,5,17,1,1,top_right,threatening,neutral,,,,,,,,,,,,,,,,
,,,,,356794,f,y,r,n,13,0,2025-04-06_19h19.02.624,VisualSearchFaces,2024.2.4,Win32,59.88023952,,,,,,,,933.8353,933.9505,933.9505,935.9502,block2,f,1,0.4323,,0,6,6,21,1,0,top_left,neutral,no_target,,,,,,,,,,,,,,,,
,,,,,356794,f,y,r,n,13,0,2025-04-06_19h19.02.624,VisualSearchFaces,2024.2.4,Win32,59.88023952,,,,,,,,936.9515,937.067,937.067,939.067,block2,f,1,0.6342,,0,7,7,27,1,0,top_right,neutral,no_target,,,,,,,,,,,,,,,,
,,,,,356794,f,y,r,n,13,0,2025-04-06_19h19.02.624,VisualSearchFaces,2024.2.4,Win32,59.88023952,,,,,,,,940.0684,940.1833,940.1833,942.1834,block2,f,1,0.3208,,0,8,8,23,1,0,bottom_left,neutral,no_target,,,,,,,,,,,,,,,,
,,,,,356794,f,y,r,n,13,0,2025-04-06_19h19.02.624,VisualSearchFaces,2024.2.4,Win32,59.88023952,,,,,,,,943.1847,943.2998,943.2998,945.3002,block2,f,0,0.5388,,0,9,9,14,1,1,bottom_right,friendly,neutral,,,,,,,,,,,,,,,,
,,,,,356794,f,y,r,n,13,0,2025-04-06_19h19.02.624,VisualSearchFaces,2024.2.4,Win32,59.88023952,,,,,,,,946.3017,946.4163,946.4164,948.4164,block2,f,1,0.5259,,0,10,10,37,1,0,top_right,threatening,no_target,,,,,,,,,,,,,,,,
,,,,,356794,f,y,r,n,13,0,2025-04-06_19h19.02.624,VisualSearchFaces,2024.2.4,Win32,59.88023952,,,,,,,,949.4175,949.5328,949.5329,951.5328,block2,j,1,0.592,,0,11,11,15,1,1,centre,threatening,neutral,,,,,,,,,,,,,,,,
,,,,,356794,f,y,r,n,13,0,2025-04-06_19h19.02.624,VisualSearchFaces,2024.2.4,Win32,59.88023952,,,,,,,,952.5352,952.6496,952.6496,954.6492,block2,f,1,0.4679,,0,12,12,33,1,0,bottom_left,friendly,no_target,,,,,,,,,,,,,,,,
,,,,,356794,f,y,r,n,13,0,2025-04-06_19h19.02.624,VisualSearchFaces,2024.2.4,Win32,59.88023952,,,,,,,,955.6505,955.7661,955.7661,957.7658,block2,j,1,0.463,,0,13,13,10,1,1,centre,friendly,neutral,,,,,,,,,,,,,,,,
,,,,,356794,f,y,r,n,13,0,2025-04-06_19h19.02.624,VisualSearchFaces,2024.2.4,Win32,59.88023952,,,,,,,,958.7667,958.8824,958.8825,960.8823,block2,f,1,0.4368,,0,14,14,30,1,0,centre,friendly,no_target,,,,,,,,,,,,,,,,
,,,,,356794,f,y,r,n,13,0,2025-04-06_19h19.02.624,VisualSearchFaces,2024.2.4,Win32,59.88023952,,,,,,,,961.8836,961.9988,961.9988,963.9989,block2,f,1,0.4728,,0,15,15,26,1,0,top_left,neutral,no_target,,,,,,,,,,,,,,,,
,,,,,356794,f,y,r,n,13,0,2025-04-06_19h19.02.624,VisualSearchFaces,2024.2.4,Win32,59.88023952,,,,,,,,965,965.1153,965.1153,967.1156,block2,f,0,0.434,,0,16,16,11,1,1,top_left,friendly,neutral,,,,,,,,,,,,,,,,
,,,,,356794,f,y,r,n,13,0,2025-04-06_19h19.02.624,VisualSearchFaces,2024.2.4,Win32,59.88023952,,,,,,,,968.1172,968.232,968.232,970.2317,block2,f,1,0.5508,,0,17,17,28,1,0,bottom_left,neutral,no_target,,,,,,,,,,,,,,,,
,,,,,356794,f,y,r,n,13,0,2025-04-06_19h19.02.624,VisualSearchFaces,2024.2.4,Win32,59.88023952,,,,,,,,971.2332,971.332,971.332,973.3318,block2,j,1,0.6507,,0,18,18,18,1,1,bottom_left,threatening,neutral,,,,,,,,,,,,,,,,
,,,,,356794,f,y,r,n,13,0,2025-04-06_19h19.02.624,VisualSearchFaces,2024.2.4,Win32,59.88023952,,,,,,,,974.3327,974.4485,974.4485,976.4485,block2,j,1,0.2909,,0,19,19,5,1,1,centre,neutral,threatening,,,,,,,,,,,,,,,,
,,,,,356794,f,y,r,n,13,0,2025-04-06_19h19.02.624,VisualSearchFaces,2024.2.4,Win32,59.88023952,,,,,,,,977.4497,977.5483,977.5483,979.5479,block2,j,1,0.5352,,0,20,20,6,1,1,top_left,neutral,threatening,,,,,,,,,,,,,,,,
,,,,,356794,f,y,r,n,13,0,2025-04-06_19h19.02.624,VisualSearchFaces,2024.2.4,Win32,59.88023952,,,,,,,,980.549,980.6647,980.6647,982.6644,block2,f,1,0.6476,,0,21,21,32,1,0,top_right,friendly,no_target,,,,,,,,,,,,,,,,
,,,,,356794,f,y,r,n,13,0,2025-04-06_19h19.02.624,VisualSearchFaces,2024.2.4,Win32,59.88023952,,,,,,,,983.6654,983.7812,983.7812,985.7809,block2,j,1,0.3675,,0,22,22,9,1,1,bottom_right,neutral,threatening,,,,,,,,,,,,,,,,
,,,,,356794,f,y,r,n,13,0,2025-04-06_19h19.02.624,VisualSearchFaces,2024.2.4,Win32,59.88023952,,,,,,,,986.7821,986.8979,986.898,988.8976,block2,f,1,0.4786,,0,23,23,22,1,0,top_right,neutral,no_target,,,,,,,,,,,,,,,,
,,,,,356794,f,y,r,n,13,0,2025-04-06_19h19.02.624,VisualSearchFaces,2024.2.4,Win32,59.88023952,,,,,,,,989.8987,990.0142,990.0142,992.0139,block2,f,1,0.4292,,0,24,24,24,1,0,bottom_right,neutral,no_target,,,,,,,,,,,,,,,,
,,,,,356794,f,y,r,n,13,0,2025-04-06_19h19.02.624,VisualSearchFaces,2024.2.4,Win32,59.88023952,,,,,,,,993.0172,993.1307,993.1307,995.1306,block2,f,1,0.3764,,0,25,25,20,1,0,centre,neutral,no_target,,,,,,,,,,,,,,,,
,,,,,356794,f,y,r,n,13,0,2025-04-06_19h19.02.624,VisualSearchFaces,2024.2.4,Win32,59.88023952,,,,,,,,996.1322,996.2473,996.2473,998.247,block2,f,1,0.5846,,0,26,26,39,1,0,bottom_right,threatening,no_target,,,,,,,,,,,,,,,,
,,,,,356794,f,y,r,n,13,0,2025-04-06_19h19.02.624,VisualSearchFaces,2024.2.4,Win32,59.88023952,,,,,,,,999.2492,999.3474,999.3474,1001.3469,block2,f,1,0.6136,,0,27,27,31,1,0,top_left,friendly,no_target,,,,,,,,,,,,,,,,
,,,,,356794,f,y,r,n,13,0,2025-04-06_19h19.02.624,VisualSearchFaces,2024.2.4,Win32,59.88023952,,,,,,,,1002.3482,1002.4635,1002.4635,1004.4633,block2,j,0,0.291,,0,28,28,36,1,0,top_left,threatening,no_target,,,,,,,,,,,,,,,,
,,,,,356794,f,y,r,n,13,0,2025-04-06_19h19.02.624,VisualSearchFaces,2024.2.4,Win32,59.88023952,,,,,,,,1005.4651,1005.5801,1005.5802,1007.5801,block2,f,1,0.5934,,0,29,29,29,1,0,bottom_right,neutral,no_target,,,,,,,,,,,,,,,,
,,,,,356794,f,y,r,n,13,0,2025-04-06_19h19.02.624,VisualSearchFaces,2024.2.4,Win32,59.88023952,,,,,,,,1008.5811,1008.6964,1008.6965,1010.6965,block2,j,1,0.3413,,0,30,30,3,1,1,bottom_left,neutral,friendly,,,,,,,,,,,,,,,,
,,,,,356794,f,y,r,n,13,0,2025-04-06_19h19.02.624,VisualSearchFaces,2024.2.4,Win32,59.88023952,,,,,,,,1011.6975,1011.813,1011.813,1013.813,block2,j,1,0.5022,,0,31,31,12,1,1,top_right,friendly,neutral,,,,,,,,,,,,,,,,
,,,,,356794,f,y,r,n,13,0,2025-04-06_19h19.02.624,VisualSearchFaces,2024.2.4,Win32,59.88023952,,,,,,,,1014.8142,1014.9294,1014.9295,1016.9294,block2,f,1,0.56,,0,32,32,38,1,0,bottom_left,threatening,no_target,,,,,,,,,,,,,,,,
,,,,,356794,f,y,r,n,13,0,2025-04-06_19h19.02.624,VisualSearchFaces,2024.2.4,Win32,59.88023952,,,,,,,,1017.9304,1018.0293,1018.0293,1020.0293,block2,j,1,0.3979,,0,33,33,19,1,1,bottom_right,threatening,neutral,,,,,,,,,,,,,,,,
,,,,,356794,f,y,r,n,13,0,2025-04-06_19h19.02.624,VisualSearchFaces,2024.2.4,Win32,59.88023952,,,,,,,,1021.0302,1021.1295,1021.1296,1023.1292,block2,j,1,0.4878,,0,34,34,4,1,1,bottom_right,neutral,friendly,,,,,,,,,,,,,,,,
,,,,,356794,f,y,r,n,13,0,2025-04-06_19h19.02.624,VisualSearchFaces,2024.2.4,Win32,59.88023952,,,,,,,,1024.1311,1024.246,1024.246,1026.2457,block2,f,1,0.6265,,0,35,35,25,1,0,centre,neutral,no_target,,,,,,,,,,,,,,,,
,,,,,356794,f,y,r,n,13,0,2025-04-06_19h19.02.624,VisualSearchFaces,2024.2.4,Win32,59.88023952,,,,,,,,1027.2465,1027.346,1027.3461,1029.3454,block2,j,1,0.6656,,0,36,36,13,1,1,bottom_left,friendly,neutral,,,,,,,,,,,,,,,,
,,,,,356794,f,y,r,n,13,0,2025-04-06_19h19.02.624,VisualSearchFaces,2024.2.4,Win32,59.88023952,,,,,,,,1030.3469,1030.4622,1030.4622,1032.4619,block2,f,1,0.6206,,0,37,37,35,1,0,centre,threatening,no_target,,,,,,,,,,,,,,,,
,,,,,356794,f,y,r,n,13,0,2025-04-06_19h19.02.624,VisualSearchFaces,2024.2.4,Win32,59.88023952,,,,,,,,1033.464,1033.5787,1033.5787,1035.5786,block2,j,1,0.7469,,0,38,38,8,1,1,bottom_left,neutral,threatening,,,,,,,,,,,,,,,,
,,,,,356794,f,y,r,n,13,0,2025-04-06_19h19.02.624,VisualSearchFaces,2024.2.4,Win32,59.88023952,,,,,,,,1036.5803,1036.6951,1036.6951,1038.6949,block2,j,1,0.4584,,0,39,39,0,1,1,centre,neutral,friendly,,,,,,,,,,,,,,,,
,,,,,356794,f,y,r,n,13,0,2025-04-06_19h19.02.624,VisualSearchFaces,2024.2.4,Win32,59.88023952,,,,,,,,1039.6971,1039.8117,1039.8117,1041.8114,block2,j,1,0.6337,,1,0,40,11,1,1,top_left,friendly,neutral,,,,,,,,,,,,,,,,
,,,,,356794,f,y,r,n,13,0,2025-04-06_19h19.02.624,VisualSearchFaces,2024.2.4,Win32,59.88023952,,,,,,,,1042.8126,1042.9282,1042.9282,1044.9279,block2,f,1,0.6362,,1,1,41,24,1,0,bottom_right,neutral,no_target,,,,,,,,,,,,,,,,
,,,,,356794,f,y,r,n,13,0,2025-04-06_19h19.02.624,VisualSearchFaces,2024.2.4,Win32,59.88023952,,,,,,,,1045.9291,1046.0446,1046.0446,1048.0445,block2,j,1,0.7424,,1,2,42,16,1,1,top_left,threatening,neutral,,,,,,,,,,,,,,,,
,,,,,356794,f,y,r,n,13,0,2025-04-06_19h19.02.624,VisualSearchFaces,2024.2.4,Win32,59.88023952,,,,,,,,1049.0469,1049.1612,1049.1613,1051.1613,block2,j,0,0.6156,,1,3,43,30,1,0,centre,friendly,no_target,,,,,,,,,,,,,,,,
,,,,,356794,f,y,r,n,13,0,2025-04-06_19h19.02.624,VisualSearchFaces,2024.2.4,Win32,59.88023952,,,,,,,,1052.1617,1052.2775,1052.2775,1054.2776,block2,f,1,0.6912,,1,4,44,23,1,0,bottom_left,neutral,no_target,,,,,,,,,,,,,,,,
,,,,,356794,f,y,r,n,13,0,2025-04-06_19h19.02.624,VisualSearchFaces,2024.2.4,Win32,59.88023952,,,,,,,,1055.2783,1055.3941,1055.3941,1057.3941,block2,f,1,0.771,,1,5,45,37,1,0,top_right,threatening,no_target,,,,,,,,,,,,,,,,
,,,,,356794,f,y,r,n,13,0,2025-04-06_19h19.02.624,VisualSearchFaces,2024.2.4,Win32,59.88023952,,,,,,,,1058.3959,1058.5106,1058.5106,1060.5106,block2,f,1,0.8271,,1,6,46,26,1,0,top_left,neutral,no_target,,,,,,,,,,,,,,,,
,,,,,356794,f,y,r,n,13,0,2025-04-06_19h19.02.624,VisualSearchFaces,2024.2.4,Win32,59.88023952,,,,,,,,1061.5117,1061.627,1061.627,1063.6272,block2,j,1,0.3782,,1,7,47,2,1,1,top_right,neutral,friendly,,,,,,,,,,,,,,,,
,,,,,356794,f,y,r,n,13,0,2025-04-06_19h19.02.624,VisualSearchFaces,2024.2.4,Win32,59.88023952,,,,,,,,1064.6293,1064.7438,1064.7438,1066.7435,block2,j,1,0.4853,,1,8,48,14,1,1,bottom_right,friendly,neutral,,,,,,,,,,,,,,,,
,,,,,356794,f,y,r,n,13,0,2025-04-06_19h19.02.624,VisualSearchFaces,2024.2.4,Win32,59.88023952,,,,,,,,1067.7459,1067.8602,1067.8603,1069.8599,block2,j,1,0.5385,,1,9,49,1,1,1,top_left,neutral,friendly,,,,,,,,,,,,,,,,
,,,,,356794,f,y,r,n,13,0,2025-04-06_19h19.02.624,VisualSearchFaces,2024.2.4,Win32,59.88023952,,,,,,,,1070.8611,1070.9766,1070.9766,1072.9765,block2,f,1,0.2671,,1,10,50,29,1,0,bottom_right,neutral,no_target,,,,,,,,,,,,,,,,
,,,,,356794,f,y,r,n,13,0,2025-04-06_19h19.02.624,VisualSearchFaces,2024.2.4,Win32,59.88023952,,,,,,,,1073.9786,1074.0933,1074.0933,1076.0931,block2,j,1,0.3989,,1,11,51,13,1,1,bottom_left,friendly,neutral,,,,,,,,,,,,,,,,
,,,,,356794,f,y,r,n,13,0,2025-04-06_19h19.02.624,VisualSearchFaces,2024.2.4,Win32,59.88023952,,,,,,,,1077.0941,1077.2096,1077.2096,1079.2095,block2,j,1,0.5706,,1,12,52,18,1,1,bottom_left,threatening,neutral,,,,,,,,,,,,,,,,
,,,,,356794,f,y,r,n,13,0,2025-04-06_19h19.02.624,VisualSearchFaces,2024.2.4,Win32,59.88023952,,,,,,,,1080.2113,1080.3262,1080.3262,1082.326,block2,j,1,0.5357,,1,13,53,6,1,1,top_left,neutral,threatening,,,,,,,,,,,,,,,,
,,,,,356794,f,y,r,n,13,0,2025-04-06_19h19.02.624,VisualSearchFaces,2024.2.4,Win32,59.88023952,,,,,,,,1083.3277,1083.4263,1083.4264,1085.4258,block2,j,1,0.422,,1,14,54,8,1,1,bottom_left,neutral,threatening,,,,,,,,,,,,,,,,
,,,,,356794,f,y,r,n,13,0,2025-04-06_19h19.02.624,VisualSearchFaces,2024.2.4,Win32,59.88023952,,,,,,,,1086.427,1086.5261,1086.5261,1088.5257,block2,j,1,0.5093,,1,15,55,9,1,1,bottom_right,neutral,threatening,,,,,,,,,,,,,,,,
,,,,,356794,f,y,r,n,13,0,2025-04-06_19h19.02.624,VisualSearchFaces,2024.2.4,Win32,59.88023952,,,,,,,,1089.5272,1089.6262,1089.6262,1091.6254,block2,f,1,0.4428,,1,16,56,27,1,0,top_right,neutral,no_target,,,,,,,,,,,,,,,,
,,,,,356794,f,y,r,n,13,0,2025-04-06_19h19.02.624,VisualSearchFaces,2024.2.4,Win32,59.88023952,,,,,,,,1092.6266,1092.7422,1092.7422,1094.742,block2,f,1,0.7844,,1,17,57,36,1,0,top_left,threatening,no_target,,,,,,,,,,,,,,,,
,,,,,356794,f,y,r,n,13,0,2025-04-06_19h19.02.624,VisualSearchFaces,2024.2.4,Win32,59.88023952,,,,,,,,1095.7431,1095.8587,1095.8588,1097.8584,block2,j,0,0.431,,1,18,58,25,1,0,centre,neutral,no_target,,,,,,,,,,,,,,,,
,,,,,356794,f,y,r,n,13,0,2025-04-06_19h19.02.624,VisualSearchFaces,2024.2.4,Win32,59.88023952,,,,,,,,1098.8598,1098.9751,1098.9751,1100.9751,block2,j,1,0.5286,,1,19,59,3,1,1,bottom_left,neutral,friendly,,,,,,,,,,,,,,,,
,,,,,356794,f,y,r,n,13,0,2025-04-06_19h19.02.624,VisualSearchFaces,2024.2.4,Win32,59.88023952,,,,,,,,1101.9762,1102.0755,1102.0755,1104.075,block2,f,1,0.5823,,1,20,60,31,1,0,top_left,friendly,no_target,,,,,,,,,,,,,,,,
,,,,,356794,f,y,r,n,13,0,2025-04-06_19h19.02.624,VisualSearchFaces,2024.2.4,Win32,59.88023952,,,,,,,,1105.0771,1105.1916,1105.1917,1107.1915,block2,j,1,0.4547,,1,21,61,19,1,1,bottom_right,threatening,neutral,,,,,,,,,,,,,,,,
,,,,,356794,f,y,r,n,13,0,2025-04-06_19h19.02.624,VisualSearchFaces,2024.2.4,Win32,59.88023952,,,,,,,,1108.1922,1108.3082,1108.3082,1110.308,block2,f,1,0.6672,,1,22,62,22,1,0,top_right,neutral,no_target,,,,,,,,,,,,,,,,
,,,,,356794,f,y,r,n,13,0,2025-04-06_19h19.02.624,VisualSearchFaces,2024.2.4,Win32,59.88023952,,,,,,,,1111.3089,1111.4245,1111.4245,1113.4246,block2,j,1,0.7333,,1,23,63,0,1,1,centre,neutral,friendly,,,,,,,,,,,,,,,,
,,,,,356794,f,y,r,n,13,0,2025-04-06_19h19.02.624,VisualSearchFaces,2024.2.4,Win32,59.88023952,,,,,,,,1114.4254,1114.541,1114.541,1116.5409,block2,f,1,0.6012,,1,24,64,39,1,0,bottom_right,threatening,no_target,,,,,,,,,,,,,,,,
,,,,,356794,f,y,r,n,13,0,2025-04-06_19h19.02.624,VisualSearchFaces,2024.2.4,Win32,59.88023952,,,,,,,,1117.5426,1117.6575,1117.6575,1119.6574,block2,j,0,0.5568,,1,25,65,28,1,0,bottom_left,neutral,no_target,,,,,,,,,,,,,,,,
,,,,,356794,f,y,r,n,13,0,2025-04-06_19h19.02.624,VisualSearchFaces,2024.2.4,Win32,59.88023952,,,,,,,,1120.6595,1120.7747,1120.7747,1122.7739,block2,f,1,0.4916,,1,26,66,35,1,0,centre,threatening,no_target,,,,,,,,,,,,,,,,
,,,,,356794,f,y,r,n,13,0,2025-04-06_19h19.02.624,VisualSearchFaces,2024.2.4,Win32,59.88023952,,,,,,,,1123.7751,1123.8905,1123.8905,1125.8905,block2,f,1,0.5381,,1,27,67,38,1,0,bottom_left,threatening,no_target,,,,,,,,,,,,,,,,
,,,,,356794,f,y,r,n,13,0,2025-04-06_19h19.02.624,VisualSearchFaces,2024.2.4,Win32,59.88023952,,,,,,,,1126.8926,1127.0075,1127.0075,1129.0068,block2,f,1,0.4376,,1,28,68,33,1,0,bottom_left,friendly,no_target,,,,,,,,,,,,,,,,
,,,,,356794,f,y,r,n,13,0,2025-04-06_19h19.02.624,VisualSearchFaces,2024.2.4,Win32,59.88023952,,,,,,,,1130.0081,1130.1235,1130.1235,1132.1234,block2,j,1,0.6009,,1,29,69,17,1,1,top_right,threatening,neutral,,,,,,,,,,,,,,,,
,,,,,356794,f,y,r,n,13,0,2025-04-06_19h19.02.624,VisualSearchFaces,2024.2.4,Win32,59.88023952,,,,,,,,1133.1251,1133.24,1133.2401,1135.2398,block2,j,1,0.4575,,1,30,70,7,1,1,top_right,neutral,threatening,,,,,,,,,,,,,,,,
,,,,,356794,f,y,r,n,13,0,2025-04-06_19h19.02.624,VisualSearchFaces,2024.2.4,Win32,59.88023952,,,,,,,,1136.2414,1136.3568,1136.3568,1138.3565,block2,j,1,0.5286,,1,31,71,4,1,1,bottom_right,neutral,friendly,,,,,,,,,,,,,,,,
,,,,,356794,f,y,r,n,13,0,2025-04-06_19h19.02.624,VisualSearchFaces,2024.2.4,Win32,59.88023952,,,,,,,,1139.3576,1139.4731,1139.4731,1141.4733,block2,j,1,0.4532,,1,32,72,5,1,1,centre,neutral,threatening,,,,,,,,,,,,,,,,
,,,,,356794,f,y,r,n,13,0,2025-04-06_19h19.02.624,VisualSearchFaces,2024.2.4,Win32,59.88023952,,,,,,,,1142.4742,1142.5897,1142.5897,1144.5895,block2,j,1,0.628,,1,33,73,10,1,1,centre,friendly,neutral,,,,,,,,,,,,,,,,
,,,,,356794,f,y,r,n,13,0,2025-04-06_19h19.02.624,VisualSearchFaces,2024.2.4,Win32,59.88023952,,,,,,,,1145.5915,1145.7061,1145.7061,1147.7059,block2,f,1,0.4749,,1,34,74,20,1,0,centre,neutral,no_target,,,,,,,,,,,,,,,,
,,,,,356794,f,y,r,n,13,0,2025-04-06_19h19.02.624,VisualSearchFaces,2024.2.4,Win32,59.88023952,,,,,,,,1148.7074,1148.8061,1148.8061,1150.8057,block2,f,1,0.5975,,1,35,75,32,1,0,top_right,friendly,no_target,,,,,,,,,,,,,,,,
,,,,,356794,f,y,r,n,13,0,2025-04-06_19h19.02.624,VisualSearchFaces,2024.2.4,Win32,59.88023952,,,,,,,,1151.8067,1151.9226,1151.9226,1153.9223,block2,j,1,0.5762,,1,36,76,15,1,1,centre,threatening,neutral,,,,,,,,,,,,,,,,
,,,,,356794,f,y,r,n,13,0,2025-04-06_19h19.02.624,VisualSearchFaces,2024.2.4,Win32,59.88023952,,,,,,,,1154.9238,1155.0391,1155.0391,1157.0388,block2,j,0,0.5563,,1,37,77,34,1,0,bottom_right,friendly,no_target,,,,,,,,,,,,,,,,
,,,,,356794,f,y,r,n,13,0,2025-04-06_19h19.02.624,VisualSearchFaces,2024.2.4,Win32,59.88023952,,,,,,,,1158.0399,1158.1555,1158.1555,1160.1554,block2,j,1,0.4719,,1,38,78,12,1,1,top_right,friendly,neutral,,,,,,,,,,,,,,,,
,,,,,356794,f,y,r,n,13,0,2025-04-06_19h19.02.624,VisualSearchFaces,2024.2.4,Win32,59.88023952,,,,,,,,1161.1571,1161.2722,1161.2723,1163.2719,block2,f,1,0.3772,,1,39,79,21,1,0,top_left,neutral,no_target,,,,,,,,,,,,,,,,
,,,,,356794,f,y,r,n,13,0,2025-04-06_19h19.02.624,VisualSearchFaces,2024.2.4,Win32,59.88023952,,,1179.2558,1189.4876,space,10.2092,,1190.4889,1190.5873,1190.5873,1192.5869,block3,j,1,0.441,,0,0,0,19,1,1,bottom_right,threatening,neutral,1163.2733,1179.2544,space,15.963,,,,,,,,,,,,
,,,,,356794,f,y,r,n,13,0,2025-04-06_19h19.02.624,VisualSearchFaces,2024.2.4,Win32,59.88023952,,,,,,,,1193.588,1193.7037,1193.7038,1195.7036,block3,f,1,0.4785,,0,1,1,39,1,0,bottom_right,threatening,no_target,,,,,,,,,,,,,,,,
,,,,,356794,f,y,r,n,13,0,2025-04-06_19h19.02.624,VisualSearchFaces,2024.2.4,Win32,59.88023952,,,,,,,,1196.7051,1196.8202,1196.8203,1198.8202,block3,j,0,0.5343,,0,2,2,26,1,0,top_left,neutral,no_target,,,,,,,,,,,,,,,,
,,,,,356794,f,y,r,n,13,0,2025-04-06_19h19.02.624,VisualSearchFaces,2024.2.4,Win32,59.88023952,,,,,,,,1199.822,1199.9367,1199.9367,1201.9367,block3,j,1,0.6183,,0,3,3,13,1,1,bottom_left,friendly,neutral,,,,,,,,,,,,,,,,
,,,,,356794,f,y,r,n,13,0,2025-04-06_19h19.02.624,VisualSearchFaces,2024.2.4,Win32,59.88023952,,,,,,,,1202.9377,1203.0533,1203.0533,1205.0529,block3,f,1,0.4324,,0,4,4,32,1,0,top_right,friendly,no_target,,,,,,,,,,,,,,,,
,,,,,356794,f,y,r,n,13,0,2025-04-06_19h19.02.624,VisualSearchFaces,2024.2.4,Win32,59.88023952,,,,,,,,1206.0546,1206.1698,1206.1699,1208.1698,block3,f,1,0.4652,,0,5,5,23,1,0,bottom_left,neutral,no_target,,,,,,,,,,,,,,,,
,,,,,356794,f,y,r,n,13,0,2025-04-06_19h19.02.624,VisualSearchFaces,2024.2.4,Win32,59.88023952,,,,,,,,1209.1706,1209.2862,1209.2863,1211.286,block3,j,1,0.5206,,0,6,6,16,1,1,top_left,threatening,neutral,,,,,,,,,,,,,,,,
,,,,,356794,f,y,r,n,13,0,2025-04-06_19h19.02.624,VisualSearchFaces,2024.2.4,Win32,59.88023952,,,,,,,,1212.2871,1212.4028,1212.4028,1214.4025,block3,j,1,0.7276,,0,7,7,15,1,1,centre,threatening,neutral,,,,,,,,,,,,,,,,
,,,,,356794,f,y,r,n,13,0,2025-04-06_19h19.02.624,VisualSearchFaces,2024.2.4,Win32,59.88023952,,,,,,,,1215.4037,1215.5191,1215.5192,1217.5192,block3,f,1,0.4342,,0,8,8,24,1,0,bottom_right,neutral,no_target,,,,,,,,,,,,,,,,
,,,,,356794,f,y,r,n,13,0,2025-04-06_19h19.02.624,VisualSearchFaces,2024.2.4,Win32,59.88023952,,,,,,,,1218.5218,1218.6358,1218.6358,1220.6355,block3,j,1,0.4404,,0,9,9,1,1,1,top_left,neutral,friendly,,,,,,,,,,,,,,,,
,,,,,356794,f,y,r,n,13,0,2025-04-06_19h19.02.624,VisualSearchFaces,2024.2.4,Win32,59.88023952,,,,,,,,1221.637,1221.7522,1221.7522,1223.7521,block3,j,1,0.5223,,0,10,10,8,1,1,bottom_left,neutral,threatening,,,,,,,,,,,,,,,,
,,,,,356794,f,y,r,n,13,0,2025-04-06_19h19.02.624,VisualSearchFaces,2024.2.4,Win32,59.88023952,,,,,,,,1224.7532,1224.8687,1224.8688,1226.8686,block3,f,1,0.5289,,0,11,11,38,1,0,bottom_left,threatening,no_target,,,,,,,,,,,,,,,,
,,,,,356794,f,y,r,n,13,0,2025-04-06_19h19.02.624,VisualSearchFaces,2024.2.4,Win32,59.88023952,,,,,,,,1227.8717,1227.9854,1227.9855,1229.9852,block3,f,1,0.8249,,0,12,12,27,1,0,top_right,neutral,no_target,,,,,,,,,,,,,,,,
,,,,,356794,f,y,r,n,13,0,2025-04-06_19h19.02.624,VisualSearchFaces,2024.2.4,Win32,59.88023952,,,,,,,,1230.9864,1231.0852,1231.0853,1233.0849,block3,j,1,0.4525,,0,13,13,9,1,1,bottom_right,neutral,threatening,,,,,,,,,,,,,,,,
,,,,,356794,f,y,r,n,13,0,2025-04-06_19h19.02.624,VisualSearchFaces,2024.2.4,Win32,59.88023952,,,,,,,,1234.0858,1234.2017,1234.2017,1236.2017,block3,f,0,0.7204,,0,14,14,12,1,1,top_right,friendly,neutral,,,,,,,,,,,,,,,,
,,,,,356794,f,y,r,n,13,0,2025-04-06_19h19.02.624,VisualSearchFaces,2024.2.4,Win32,59.88023952,,,,,,,,1237.2026,1237.3182,1237.3184,1239.3181,block3,f,1,0.4757,,0,15,15,30,1,0,centre,friendly,no_target,,,,,,,,,,,,,,,,
,,,,,356794,f,y,r,n,13,0,2025-04-06_19h19.02.624,VisualSearchFaces,2024.2.4,Win32,59.88023952,,,,,,,,1240.3192,1240.4347,1240.4347,1242.4344,block3,f,1,0.4648,,0,16,16,20,1,0,centre,neutral,no_target,,,,,,,,,,,,,,,,
,,,,,356794,f,y,r,n,13,0,2025-04-06_19h19.02.624,VisualSearchFaces,2024.2.4,Win32,59.88023952,,,,,,,,1243.4354,1243.551,1243.551,1245.5509,block3,j,1,0.2706,,0,17,17,3,1,1,bottom_left,neutral,friendly,,,,,,,,,,,,,,,,
,,,,,356794,f,y,r,n,13,0,2025-04-06_19h19.02.624,VisualSearchFaces,2024.2.4,Win32,59.88023952,,,,,,,,1246.5527,1246.6678,1246.6678,1248.6674,block3,f,1,0.7474,,0,18,18,36,1,0,top_left,threatening,no_target,,,,,,,,,,,,,,,,
,,,,,356794,f,y,r,n,13,0,2025-04-06_19h19.02.624,VisualSearchFaces,2024.2.4,Win32,59.88023952,,,,,,,,1249.6685,1249.7841,1249.7842,1251.784,block3,f,1,0.5282,,0,19,19,21,1,0,top_left,neutral,no_target,,,,,,,,,,,,,,,,
,,,,,356794,f,y,r,n,13,0,2025-04-06_19h19.02.624,VisualSearchFaces,2024.2.4,Win32,59.88023952,,,,,,,,1252.7854,1252.9006,1252.9006,1254.9004,block3,f,1,0.4173,,0,20,20,29,1,0,bottom_right,neutral,no_target,,,,,,,,,,,,,,,,
,,,,,356794,f,y,r,n,13,0,2025-04-06_19h19.02.624,VisualSearchFaces,2024.2.4,Win32,59.88023952,,,,,,,,1255.9015,1256.0174,1256.0174,1258.017,block3,f,1,0.5271,,0,21,21,35,1,0,centre,threatening,no_target,,,,,,,,,,,,,,,,
,,,,,356794,f,y,r,n,13,0,2025-04-06_19h19.02.624,VisualSearchFaces,2024.2.4,Win32,59.88023952,,,,,,,,1259.0181,1259.1339,1259.1339,1261.1339,block3,j,1,0.431,,0,22,22,0,1,1,centre,neutral,friendly,,,,,,,,,,,,,,,,
,,,,,356794,f,y,r,n,13,0,2025-04-06_19h19.02.624,VisualSearchFaces,2024.2.4,Win32,59.88023952,,,,,,,,1262.1348,1262.2502,1262.2502,1264.2499,block3,j,1,0.5392,,0,23,23,18,1,1,bottom_left,threatening,neutral,,,,,,,,,,,,,,,,
,,,,,356794,f,y,r,n,13,0,2025-04-06_19h19.02.624,VisualSearchFaces,2024.2.4,Win32,59.88023952,,,,,,,,1265.2515,1265.3502,1265.3503,1267.3502,block3,f,1,0.4991,,0,24,24,33,1,0,bottom_left,friendly,no_target,,,,,,,,,,,,,,,,
,,,,,356794,f,y,r,n,13,0,2025-04-06_19h19.02.624,VisualSearchFaces,2024.2.4,Win32,59.88023952,,,,,,,,1268.3511,1268.4666,1268.4666,1270.4662,block3,f,1,0.4563,,0,25,25,31,1,0,top_left,friendly,no_target,,,,,,,,,,,,,,,,
,,,,,356794,f,y,r,n,13,0,2025-04-06_19h19.02.624,VisualSearchFaces,2024.2.4,Win32,59.88023952,,,,,,,,1271.4677,1271.583,1271.583,1273.5835,block3,f,1,0.4882,,0,26,26,37,1,0,top_right,threatening,no_target,,,,,,,,,,,,,,,,
,,,,,356794,f,y,r,n,13,0,2025-04-06_19h19.02.624,VisualSearchFaces,2024.2.4,Win32,59.88023952,,,,,,,,1274.5841,1274.6995,1274.6995,1276.6993,block3,j,1,0.446,,0,27,27,5,1,1,centre,neutral,threatening,,,,,,,,,,,,,,,,
,,,,,356794,f,y,r,n,13,0,2025-04-06_19h19.02.624,VisualSearchFaces,2024.2.4,Win32,59.88023952,,,,,,,,1277.7007,1277.7995,1277.7995,1279.7991,block3,f,1,0.5451,,0,28,28,28,1,0,bottom_left,neutral,no_target,,,,,,,,,,,,,,,,
,,,,,356794,f,y,r,n,13,0,2025-04-06_19h19.02.624,VisualSearchFaces,2024.2.4,Win32,59.88023952,,,,,,,,1280.8002,1280.9157,1280.9157,1282.9159,block3,j,1,0.4067,,0,29,29,2,1,1,top_right,neutral,friendly,,,,,,,,,,,,,,,,
,,,,,356794,f,y,r,n,13,0,2025-04-06_19h19.02.624,VisualSearchFaces,2024.2.4,Win32,59.88023952,,,,,,,,1283.9166,1284.0156,1284.0156,1286.0155,block3,j,1,0.4476,,0,30,30,4,1,1,bottom_right,neutral,friendly,,,,,,,,,,,,,,,,
,,,,,356794,f,y,r,n,13,0,2025-04-06_19h19.02.624,VisualSearchFaces,2024.2.4,Win32,59.88023952,,,,,,,,1287.0172,1287.1158,1287.1158,1289.1154,block3,j,1,0.7911,,0,31,31,11,1,1,top_left,friendly,neutral,,,,,,,,,,,,,,,,
,,,,,356794,f,y,r,n,13,0,2025-04-06_19h19.02.624,VisualSearchFaces,2024.2.4,Win32,59.88023952,,,,,,,,1290.1163,1290.232,1290.232,1292.2321,block3,f,0,0.3946,,0,32,32,10,1,1,centre,friendly,neutral,,,,,,,,,,,,,,,,
,,,,,356794,f,y,r,n,13,0,2025-04-06_19h19.02.624,VisualSearchFaces,2024.2.4,Win32,59.88023952,,,,,,,,1293.2336,1293.3488,1293.349,1295.3486,block3,j,1,0.5881,,0,33,33,14,1,1,bottom_right,friendly,neutral,,,,,,,,,,,,,,,,
,,,,,356794,f,y,r,n,13,0,2025-04-06_19h19.02.624,VisualSearchFaces,2024.2.4,Win32,59.88023952,,,,,,,,1296.3497,1296.465,1296.465,1298.4648,block3,j,1,0.4838,,0,34,34,17,1,1,top_right,threatening,neutral,,,,,,,,,,,,,,,,
,,,,,356794,f,y,r,n,13,0,2025-04-06_19h19.02.624,VisualSearchFaces,2024.2.4,Win32,59.88023952,,,,,,,,1299.4668,1299.5816,1299.5816,1301.5813,block3,j,1,0.9166,,0,35,35,6,1,1,top_left,neutral,threatening,,,,,,,,,,,,,,,,
,,,,,356794,f,y,r,n,13,0,2025-04-06_19h19.02.624,VisualSearchFaces,2024.2.4,Win32,59.88023952,,,,,,,,1302.583,1302.6983,1302.6984,1304.698,block3,f,1,0.478,,0,36,36,22,1,0,top_right,neutral,no_target,,,,,,,,,,,,,,,,
,,,,,356794,f,y,r,n,13,0,2025-04-06_19h19.02.624,VisualSearchFaces,2024.2.4,Win32,59.88023952,,,,,,,,1305.6987,1305.8145,1305.8145,1307.8144,block3,j,1,1.0751,,0,37,37,7,1,1,top_right,neutral,threatening,,,,,,,,,,,,,,,,
,,,,,356794,f,y,r,n,13,0,2025-04-06_19h19.02.624,VisualSearchFaces,2024.2.4,Win32,59.88023952,,,,,,,,1308.8158,1308.931,1308.9311,1310.9309,block3,f,1,0.6108,,0,38,38,34,1,0,bottom_right,friendly,no_target,,,,,,,,,,,,,,,,
,,,,,356794,f,y,r,n,13,0,2025-04-06_19h19.02.624,VisualSearchFaces,2024.2.4,Win32,59.88023952,,,,,,,,1311.9319,1312.0475,1312.0476,1314.0474,block3,f,1,0.6925,,0,39,39,25,1,0,centre,neutral,no_target,,,,,,,,,,,,,,,,
,,,,,356794,f,y,r,n,13,0,2025-04-06_19h19.02.624,VisualSearchFaces,2024.2.4,Win32,59.88023952,,,,,,,,1315.0484,1315.1476,1315.1476,1317.1472,block3,j,1,0.6601,,1,0,40,17,1,1,top_right,threatening,neutral,,,,,,,,,,,,,,,,
,,,,,356794,f,y,r,n,13,0,2025-04-06_19h19.02.624,VisualSearchFaces,2024.2.4,Win32,59.88023952,,,,,,,,1318.1486,1318.2643,1318.2644,1320.2638,block3,j,1,0.4671,,1,1,41,12,1,1,top_right,friendly,neutral,,,,,,,,,,,,,,,,
,,,,,356794,f,y,r,n,13,0,2025-04-06_19h19.02.624,VisualSearchFaces,2024.2.4,Win32,59.88023952,,,,,,,,1321.2652,1321.3806,1321.3808,1323.3803,block3,f,1,0.5161,,1,2,42,20,1,0,centre,neutral,no_target,,,,,,,,,,,,,,,,
,,,,,356794,f,y,r,n,13,0,2025-04-06_19h19.02.624,VisualSearchFaces,2024.2.4,Win32,59.88023952,,,,,,,,1324.3825,1324.4971,1324.4971,1326.4967,block3,j,1,0.4889,,1,3,43,19,1,1,bottom_right,threatening,neutral,,,,,,,,,,,,,,,,
,,,,,356794,f,y,r,n,13,0,2025-04-06_19h19.02.624,VisualSearchFaces,2024.2.4,Win32,59.88023952,,,,,,,,1327.4985,1327.6134,1327.6135,1329.6133,block3,f,1,0.578,,1,4,44,29,1,0,bottom_right,neutral,no_target,,,,,,,,,,,,,,,,
,,,,,356794,f,y,r,n,13,0,2025-04-06_19h19.02.624,VisualSearchFaces,2024.2.4,Win32,59.88023952,,,,,,,,1330.6144,1330.73,1330.73,1332.7298,block3,j,1,0.5646,,1,5,45,11,1,1,top_left,friendly,neutral,,,,,,,,,,,,,,,,
,,,,,356794,f,y,r,n,13,0,2025-04-06_19h19.02.624,VisualSearchFaces,2024.2.4,Win32,59.88023952,,,,,,,,1333.7321,1333.8467,1333.8467,1335.8463,block3,j,1,0.4744,,1,6,46,4,1,1,bottom_right,neutral,friendly,,,,,,,,,,,,,,,,
,,,,,356794,f,y,r,n,13,0,2025-04-06_19h19.02.624,VisualSearchFaces,2024.2.4,Win32,59.88023952,,,,,,,,1336.8475,1336.9629,1336.9629,1338.9627,block3,j,1,0.4011,,1,7,47,3,1,1,bottom_left,neutral,friendly,,,,,,,,,,,,,,,,
,,,,,356794,f,y,r,n,13,0,2025-04-06_19h19.02.624,VisualSearchFaces,2024.2.4,Win32,59.88023952,,,,,,,,1339.964,1340.0794,1340.0794,1342.0793,block3,f,1,0.5002,,1,8,48,21,1,0,top_left,neutral,no_target,,,,,,,,,,,,,,,,
,,,,,356794,f,y,r,n,13,0,2025-04-06_19h19.02.624,VisualSearchFaces,2024.2.4,Win32,59.88023952,,,,,,,,1343.0812,1343.196,1343.196,1345.1958,block3,j,1,0.438,,1,9,49,7,1,1,top_right,neutral,threatening,,,,,,,,,,,,,,,,
,,,,,356794,f,y,r,n,13,0,2025-04-06_19h19.02.624,VisualSearchFaces,2024.2.4,Win32,59.88023952,,,,,,,,1346.1968,1346.3125,1346.3126,1348.3124,block3,j,1,0.5707,,1,10,50,6,1,1,top_left,neutral,threatening,,,,,,,,,,,,,,,,
,,,,,356794,f,y,r,n,13,0,2025-04-06_19h19.02.624,VisualSearchFaces,2024.2.4,Win32,59.88023952,,,,,,,,1349.3147,1349.4292,1349.4292,1351.4288,block3,f,1,0.5337,,1,11,51,34,1,0,bottom_right,friendly,no_target,,,,,,,,,,,,,,,,
,,,,,356794,f,y,r,n,13,0,2025-04-06_19h19.02.624,VisualSearchFaces,2024.2.4,Win32,59.88023952,,,,,,,,1352.4301,1352.5456,1352.5457,1354.5453,block3,f,1,0.5087,,1,12,52,28,1,0,bottom_left,neutral,no_target,,,,,,,,,,,,,,,,
,,,,,356794,f,y,r,n,13,0,2025-04-06_19h19.02.624,VisualSearchFaces,2024.2.4,Win32,59.88023952,,,,,,,,1355.5469,1355.6619,1355.6619,1357.6618,block3,f,1,0.4636,,1,13,53,26,1,0,top_left,neutral,no_target,,,,,,,,,,,,,,,,
,,,,,356794,f,y,r,n,13,0,2025-04-06_19h19.02.624,VisualSearchFaces,2024.2.4,Win32,59.88023952,,,,,,,,1358.663,1358.7786,1358.7786,1360.7785,block3,j,1,0.4827,,1,14,54,10,1,1,centre,friendly,neutral,,,,,,,,,,,,,,,,
,,,,,356794,f,y,r,n,13,0,2025-04-06_19h19.02.624,VisualSearchFaces,2024.2.4,Win32,59.88023952,,,,,,,,1361.7793,1361.895,1361.8951,1363.8948,block3,f,1,0.6011,,1,15,55,25,1,0,centre,neutral,no_target,,,,,,,,,,,,,,,,
,,,,,356794,f,y,r,n,13,0,2025-04-06_19h19.02.624,VisualSearchFaces,2024.2.4,Win32,59.88023952,,,,,,,,1364.8965,1365.0114,1365.0114,1367.0115,block3,f,1,0.4553,,1,16,56,38,1,0,bottom_left,threatening,no_target,,,,,,,,,,,,,,,,
,,,,,356794,f,y,r,n,13,0,2025-04-06_19h19.02.624,VisualSearchFaces,2024.2.4,Win32,59.88023952,,,,,,,,1368.0131,1368.1282,1368.1282,1370.1279,block3,f,1,0.5524,,1,17,57,32,1,0,top_right,friendly,no_target,,,,,,,,,,,,,,,,
,,,,,356794,f,y,r,n,13,0,2025-04-06_19h19.02.624,VisualSearchFaces,2024.2.4,Win32,59.88023952,,,,,,,,1371.1296,1371.2278,1371.2279,1373.2295,block3,f,1,0.4883,,1,18,58,30,1,0,centre,friendly,no_target,,,,,,,,,,,,,,,,
,,,,,356794,f,y,r,n,13,0,2025-04-06_19h19.02.624,VisualSearchFaces,2024.2.4,Win32,59.88023952,,,,,,,,1374.2287,1374.3281,1374.3281,1376.3275,block3,f,1,0.4721,,1,19,59,33,1,0,bottom_left,friendly,no_target,,,,,,,,,,,,,,,,
,,,,,356794,f,y,r,n,13,0,2025-04-06_19h19.02.624,VisualSearchFaces,2024.2.4,Win32,59.88023952,,,,,,,,1377.3288,1377.4444,1377.4444,1379.444,block3,j,1,0.433,,1,20,60,0,1,1,centre,neutral,friendly,,,,,,,,,,,,,,,,
,,,,,356794,f,y,r,n,13,0,2025-04-06_19h19.02.624,VisualSearchFaces,2024.2.4,Win32,59.88023952,,,,,,,,1380.4451,1380.5607,1380.5608,1382.5613,block3,f,1,0.5449,,1,21,61,39,1,0,bottom_right,threatening,no_target,,,,,,,,,,,,,,,,
,,,,,356794,f,y,r,n,13,0,2025-04-06_19h19.02.624,VisualSearchFaces,2024.2.4,Win32,59.88023952,,,,,,,,1383.5621,1383.6777,1383.6777,1385.6769,block3,j,1,0.4742,,1,22,62,14,1,1,bottom_right,friendly,neutral,,,,,,,,,,,,,,,,
,,,,,356794,f,y,r,n,13,0,2025-04-06_19h19.02.624,VisualSearchFaces,2024.2.4,Win32,59.88023952,,,,,,,,1386.6787,1386.7938,1386.7938,1388.7935,block3,j,1,0.4248,,1,23,63,2,1,1,top_right,neutral,friendly,,,,,,,,,,,,,,,,
,,,,,356794,f,y,r,n,13,0,2025-04-06_19h19.02.624,VisualSearchFaces,2024.2.4,Win32,59.88023952,,,,,,,,1389.7947,1389.9102,1389.9102,1391.9101,block3,j,1,0.4446,,1,24,64,13,1,1,bottom_left,friendly,neutral,,,,,,,,,,,,,,,,
,,,,,356794,f,y,r,n,13,0,2025-04-06_19h19.02.624,VisualSearchFaces,2024.2.4,Win32,59.88023952,,,,,,,,1392.9108,1393.0268,1393.0269,1395.0266,block3,f,1,0.4856,,1,25,65,31,1,0,top_left,friendly,no_target,,,,,,,,,,,,,,,,
,,,,,356794,f,y,r,n,13,0,2025-04-06_19h19.02.624,VisualSearchFaces,2024.2.4,Win32,59.88023952,,,,,,,,1396.0281,1396.1433,1396.1434,1398.143,block3,f,1,0.3993,,1,26,66,35,1,0,centre,threatening,no_target,,,,,,,,,,,,,,,,
,,,,,356794,f,y,r,n,13,0,2025-04-06_19h19.02.624,VisualSearchFaces,2024.2.4,Win32,59.88023952,,,,,,,,1399.1443,1399.2597,1399.2598,1401.2595,block3,j,1,0.5165,,1,27,67,18,1,1,bottom_left,threatening,neutral,,,,,,,,,,,,,,,,
,,,,,356794,f,y,r,n,13,0,2025-04-06_19h19.02.624,VisualSearchFaces,2024.2.4,Win32,59.88023952,,,,,,,,1402.2607,1402.3762,1402.3762,1404.3762,block3,j,1,0.5839,,1,28,68,9,1,1,bottom_right,neutral,threatening,,,,,,,,,,,,,,,,
,,,,,356794,f,y,r,n,13,0,2025-04-06_19h19.02.624,VisualSearchFaces,2024.2.4,Win32,59.88023952,,,,,,,,1405.3778,1405.4764,1405.4765,1407.476,block3,j,1,0.4668,,1,29,69,15,1,1,centre,threatening,neutral,,,,,,,,,,,,,,,,
,,,,,356794,f,y,r,n,13,0,2025-04-06_19h19.02.624,VisualSearchFaces,2024.2.4,Win32,59.88023952,,,,,,,,1408.4768,1408.5928,1408.5928,1410.5926,block3,f,1,0.6633,,1,30,70,24,1,0,bottom_right,neutral,no_target,,,,,,,,,,,,,,,,
,,,,,356794,f,y,r,n,13,0,2025-04-06_19h19.02.624,VisualSearchFaces,2024.2.4,Win32,59.88023952,,,,,,,,1411.5935,1411.7092,1411.7093,1413.7091,block3,f,1,0.4925,,1,31,71,22,1,0,top_right,neutral,no_target,,,,,,,,,,,,,,,,
,,,,,356794,f,y,r,n,13,0,2025-04-06_19h19.02.624,VisualSearchFaces,2024.2.4,Win32,59.88023952,,,,,,,,1414.7106,1414.8255,1414.8255,1416.8255,block3,j,1,0.4443,,1,32,72,16,1,1,top_left,threatening,neutral,,,,,,,,,,,,,,,,
,,,,,356794,f,y,r,n,13,0,2025-04-06_19h19.02.624,VisualSearchFaces,2024.2.4,Win32,59.88023952,,,,,,,,1417.8271,1417.9423,1417.9423,1419.942,block3,f,1,0.575,,1,33,73,23,1,0,bottom_left,neutral,no_target,,,,,,,,,,,,,,,,
,,,,,356794,f,y,r,n,13,0,2025-04-06_19h19.02.624,VisualSearchFaces,2024.2.4,Win32,59.88023952,,,,,,,,1420.9429,1421.0585,1421.0585,1423.0585,block3,f,1,0.5314,,1,34,74,37,1,0,top_right,threatening,no_target,,,,,,,,,,,,,,,,
,,,,,356794,f,y,r,n,13,0,2025-04-06_19h19.02.624,VisualSearchFaces,2024.2.4,Win32,59.88023952,,,,,,,,1424.0596,1424.1752,1424.1752,1426.1749,block3,f,1,0.4408,,1,35,75,27,1,0,top_right,neutral,no_target,,,,,,,,,,,,,,,,
,,,,,356794,f,y,r,n,13,0,2025-04-06_19h19.02.624,VisualSearchFaces,2024.2.4,Win32,59.88023952,,,,,,,,1427.1763,1427.2918,1427.2918,1429.2918,block3,f,1,0.5929,,1,36,76,36,1,0,top_left,threatening,no_target,,,,,,,,,,,,,,,,
,,,,,356794,f,y,r,n,13,0,2025-04-06_19h19.02.624,VisualSearchFaces,2024.2.4,Win32,59.88023952,,,,,,,,1430.2926,1430.4082,1430.4083,1432.408,block3,j,1,0.3864,,1,37,77,5,1,1,centre,neutral,threatening,,,,,,,,,,,,,,,,
,,,,,356794,f,y,r,n,13,0,2025-04-06_19h19.02.624,VisualSearchFaces,2024.2.4,Win32,59.88023952,,,,,,,,1433.4096,1433.5246,1433.5246,1435.5246,block3,j,1,0.4713,,1,38,78,1,1,1,top_left,neutral,friendly,,,,,,,,,,,,,,,,
,,,,,356794,f,y,r,n,13,0,2025-04-06_19h19.02.624,VisualSearchFaces,2024.2.4,Win32,59.88023952,,,,,,,,1436.5257,1436.6414,1436.6415,1438.6409,block3,f,0,0.4297,,1,39,79,8,1,1,bottom_left,neutral,threatening,,,,,,,,,,,,,,,,
,,,,,356794,f,y,r,n,13,0,2025-04-06_19h19.02.624,VisualSearchFaces,2024.2.4,Win32,59.88023952,,,1448.193,1463.0735,space,14.8642,,1464.0746,1464.1897,1464.1897,1466.1897,block4,j,1,0.4631,,0,0,0,5,1,1,centre,neutral,threatening,1438.6419,1448.1907,space,9.5315,,,,,,,,,,,,
,,,,,356794,f,y,r,n,13,0,2025-04-06_19h19.02.624,VisualSearchFaces,2024.2.4,Win32,59.88023952,,,,,,,,1467.1905,1467.3062,1467.3062,1469.3062,block4,j,1,0.4523,,0,1,1,2,1,1,top_right,neutral,friendly,,,,,,,,,,,,,,,,
,,,,,356794,f,y,r,n,13,0,2025-04-06_19h19.02.624,VisualSearchFaces,2024.2.4,Win32,59.88023952,,,,,,,,1470.307,1470.4227,1470.4227,1472.4227,block4,f,1,0.4374,,0,2,2,34,1,0,bottom_right,friendly,no_target,,,,,,,,,,,,,,,,
,,,,,356794,f,y,r,n,13,0,2025-04-06_19h19.02.624,VisualSearchFaces,2024.2.4,Win32,59.88023952,,,,,,,,1473.4238,1473.5391,1473.5391,1475.5391,block4,j,1,0.5058,,0,3,3,7,1,1,top_right,neutral,threatening,,,,,,,,,,,,,,,,
,,,,,356794,f,y,r,n,13,0,2025-04-06_19h19.02.624,VisualSearchFaces,2024.2.4,Win32,59.88023952,,,,,,,,1476.5404,1476.6557,1476.6557,1478.6556,block4,f,0,0.6328,,0,4,4,14,1,1,bottom_right,friendly,neutral,,,,,,,,,,,,,,,,
,,,,,356794,f,y,r,n,13,0,2025-04-06_19h19.02.624,VisualSearchFaces,2024.2.4,Win32,59.88023952,,,,,,,,1479.6573,1479.7557,1479.7558,1481.7554,block4,j,1,0.5014,,0,5,5,4,1,1,bottom_right,neutral,friendly,,,,,,,,,,,,,,,,
,,,,,356794,f,y,r,n,13,0,2025-04-06_19h19.02.624,VisualSearchFaces,2024.2.4,Win32,59.88023952,,,,,,,,1482.7568,1482.872,1482.872,1484.872,block4,f,1,0.3373,,0,6,6,28,1,0,bottom_left,neutral,no_target,,,,,,,,,,,,,,,,
,,,,,356794,f,y,r,n,13,0,2025-04-06_19h19.02.624,VisualSearchFaces,2024.2.4,Win32,59.88023952,,,,,,,,1485.8739,1485.989,1485.989,1487.9889,block4,f,1,0.4469,,0,7,7,36,1,0,top_left,threatening,no_target,,,,,,,,,,,,,,,,
,,,,,356794,f,y,r,n,13,0,2025-04-06_19h19.02.624,VisualSearchFaces,2024.2.4,Win32,59.88023952,,,,,,,,1488.99,1489.0887,1489.0887,1491.0882,block4,f,1,0.6141,,0,8,8,24,1,0,bottom_right,neutral,no_target,,,,,,,,,,,,,,,,
,,,,,356794,f,y,r,n,13,0,2025-04-06_19h19.02.624,VisualSearchFaces,2024.2.4,Win32,59.88023952,,,,,,,,1492.09,1492.2051,1492.2051,1494.2047,block4,f,1,0.478,,0,9,9,30,1,0,centre,friendly,no_target,,,,,,,,,,,,,,,,
,,,,,356794,f,y,r,n,13,0,2025-04-06_19h19.02.624,VisualSearchFaces,2024.2.4,Win32,59.88023952,,,,,,,,1495.206,1495.3217,1495.3217,1497.3214,block4,j,1,0.5161,,0,10,10,3,1,1,bottom_left,neutral,friendly,,,,,,,,,,,,,,,,
,,,,,356794,f,y,r,n,13,0,2025-04-06_19h19.02.624,VisualSearchFaces,2024.2.4,Win32,59.88023952,,,,,,,,1498.3226,1498.438,1498.438,1500.4378,block4,j,1,0.6267,,0,11,11,17,1,1,top_right,threatening,neutral,,,,,,,,,,,,,,,,
,,,,,356794,f,y,r,n,13,0,2025-04-06_19h19.02.624,VisualSearchFaces,2024.2.4,Win32,59.88023952,,,,,,,,1501.4391,1501.5545,1501.5545,1503.5544,block4,f,1,0.4931,,0,12,12,27,1,0,top_right,neutral,no_target,,,,,,,,,,,,,,,,
,,,,,356794,f,y,r,n,13,0,2025-04-06_19h19.02.624,VisualSearchFaces,2024.2.4,Win32,59.88023952,,,,,,,,1504.5554,1504.6711,1504.6711,1506.671,block4,f,1,0.4163,,0,13,13,29,1,0,bottom_right,neutral,no_target,,,,,,,,,,,,,,,,
,,,,,356794,f,y,r,n,13,0,2025-04-06_19h19.02.624,VisualSearchFaces,2024.2.4,Win32,59.88023952,,,,,,,,1507.6722,1507.7875,1507.7875,1509.7873,block4,j,1,0.4031,,0,14,14,8,1,1,bottom_left,neutral,threatening,,,,,,,,,,,,,,,,
,,,,,356794,f,y,r,n,13,0,2025-04-06_19h19.02.624,VisualSearchFaces,2024.2.4,Win32,59.88023952,,,,,,,,1510.7894,1510.9041,1510.9041,1512.9038,block4,j,1,0.4917,,0,15,15,9,1,1,bottom_right,neutral,threatening,,,,,,,,,,,,,,,,
,,,,,356794,f,y,r,n,13,0,2025-04-06_19h19.02.624,VisualSearchFaces,2024.2.4,Win32,59.88023952,,,,,,,,1513.9058,1514.0206,1514.0206,1516.0203,block4,f,1,0.4667,,0,16,16,21,1,0,top_left,neutral,no_target,,,,,,,,,,,,,,,,
,,,,,356794,f,y,r,n,13,0,2025-04-06_19h19.02.624,VisualSearchFaces,2024.2.4,Win32,59.88023952,,,,,,,,1517.0214,1517.137,1517.137,1519.137,block4,f,1,0.5109,,0,17,17,20,1,0,centre,neutral,no_target,,,,,,,,,,,,,,,,
,,,,,356794,f,y,r,n,13,0,2025-04-06_19h19.02.624,VisualSearchFaces,2024.2.4,Win32,59.88023952,,,,,,,,1520.1384,1520.2537,1520.2537,1522.2536,block4,j,1,0.478,,0,18,18,18,1,1,bottom_left,threatening,neutral,,,,,,,,,,,,,,,,
,,,,,356794,f,y,r,n,13,0,2025-04-06_19h19.02.624,VisualSearchFaces,2024.2.4,Win32,59.88023952,,,,,,,,1523.2544,1523.37,1523.37,1525.37,block4,f,1,0.8104,,0,19,19,39,1,0,bottom_right,threatening,no_target,,,,,,,,,,,,,,,,
,,,,,356794,f,y,r,n,13,0,2025-04-06_19h19.02.624,VisualSearchFaces,2024.2.4,Win32,59.88023952,,,,,,,,1526.3711,1526.4864,1526.4864,1528.4867,block4,j,1,0.3751,,0,20,20,12,1,1,top_right,friendly,neutral,,,,,,,,,,,,,,,,
,,,,,356794,f,y,r,n,13,0,2025-04-06_19h19.02.624,VisualSearchFaces,2024.2.4,Win32,59.88023952,,,,,,,,1529.4877,1529.603,1529.603,1531.6029,block4,f,1,0.7049,,0,21,21,32,1,0,top_right,friendly,no_target,,,,,,,,,,,,,,,,
,,,,,356794,f,y,r,n,13,0,2025-04-06_19h19.02.624,VisualSearchFaces,2024.2.4,Win32,59.88023952,,,,,,,,1532.604,1532.7194,1532.7195,1534.7197,block4,f,1,0.507,,0,22,22,35,1,0,centre,threatening,no_target,,,,,,,,,,,,,,,,
,,,,,356794,f,y,r,n,13,0,2025-04-06_19h19.02.624,VisualSearchFaces,2024.2.4,Win32,59.88023952,,,,,,,,1535.7214,1535.8363,1535.8363,1537.8359,block4,j,1,0.3372,,0,23,23,16,1,1,top_left,threatening,neutral,,,,,,,,,,,,,,,,
,,,,,356794,f,y,r,n,13,0,2025-04-06_19h19.02.624,VisualSearchFaces,2024.2.4,Win32,59.88023952,,,,,,,,1538.837,1538.9528,1538.9528,1540.9523,block4,f,1,0.4401,,0,24,24,38,1,0,bottom_left,threatening,no_target,,,,,,,,,,,,,,,,
,,,,,356794,f,y,r,n,13,0,2025-04-06_19h19.02.624,VisualSearchFaces,2024.2.4,Win32,59.88023952,,,,,,,,1541.9542,1542.0692,1542.0694,1544.0695,block4,f,1,0.7902,,0,25,25,33,1,0,bottom_left,friendly,no_target,,,,,,,,,,,,,,,,
,,,,,356794,f,y,r,n,13,0,2025-04-06_19h19.02.624,VisualSearchFaces,2024.2.4,Win32,59.88023952,,,,,,,,1545.0704,1545.1857,1545.1857,1547.1855,block4,j,1,0.2554,,0,26,26,1,1,1,top_left,neutral,friendly,,,,,,,,,,,,,,,,
,,,,,356794,f,y,r,n,13,0,2025-04-06_19h19.02.624,VisualSearchFaces,2024.2.4,Win32,59.88023952,,,,,,,,1548.1863,1548.3024,1548.3025,1550.302,block4,f,1,0.505,,0,27,27,31,1,0,top_left,friendly,no_target,,,,,,,,,,,,,,,,
,,,,,356794,f,y,r,n,13,0,2025-04-06_19h19.02.624,VisualSearchFaces,2024.2.4,Win32,59.88023952,,,,,,,,1551.3033,1551.4188,1551.4188,1553.4184,block4,j,1,0.6276,,0,28,28,11,1,1,top_left,friendly,neutral,,,,,,,,,,,,,,,,
,,,,,356794,f,y,r,n,13,0,2025-04-06_19h19.02.624,VisualSearchFaces,2024.2.4,Win32,59.88023952,,,,,,,,1554.4194,1554.535,1554.535,1556.535,block4,f,1,0.4375,,0,29,29,22,1,0,top_right,neutral,no_target,,,,,,,,,,,,,,,,
,,,,,356794,f,y,r,n,13,0,2025-04-06_19h19.02.624,VisualSearchFaces,2024.2.4,Win32,59.88023952,,,,,,,,1557.536,1557.6517,1557.6517,1559.6515,block4,j,1,0.4461,,0,30,30,15,1,1,centre,threatening,neutral,,,,,,,,,,,,,,,,
,,,,,356794,f,y,r,n,13,0,2025-04-06_19h19.02.624,VisualSearchFaces,2024.2.4,Win32,59.88023952,,,,,,,,1560.6523,1560.7682,1560.7682,1562.7681,block4,f,1,0.4237,,0,31,31,37,1,0,top_right,threatening,no_target,,,,,,,,,,,,,,,,
,,,,,356794,f,y,r,n,13,0,2025-04-06_19h19.02.624,VisualSearchFaces,2024.2.4,Win32,59.88023952,,,,,,,,1563.7696,1563.8846,1563.8846,1565.8846,block4,f,1,0.5556,,0,32,32,23,1,0,bottom_left,neutral,no_target,,,,,,,,,,,,,,,,
,,,,,356794,f,y,r,n,13,0,2025-04-06_19h19.02.624,VisualSearchFaces,2024.2.4,Win32,59.88023952,,,,,,,,1566.8857,1567.001,1567.0011,1569.001,block4,j,1,0.4612,,0,33,33,0,1,1,centre,neutral,friendly,,,,,,,,,,,,,,,,
,,,,,356794,f,y,r,n,13,0,2025-04-06_19h19.02.624,VisualSearchFaces,2024.2.4,Win32,59.88023952,,,,,,,,1570.0021,1570.1012,1570.1012,1572.1011,block4,j,1,0.5058,,0,34,34,19,1,1,bottom_right,threatening,neutral,,,,,,,,,,,,,,,,
,,,,,356794,f,y,r,n,13,0,2025-04-06_19h19.02.624,VisualSearchFaces,2024.2.4,Win32,59.88023952,,,,,,,,1573.1018,1573.201,1573.201,1575.2009,block4,j,1,0.5325,,0,35,35,13,1,1,bottom_left,friendly,neutral,,,,,,,,,,,,,,,,
,,,,,356794,f,y,r,n,13,0,2025-04-06_19h19.02.624,VisualSearchFaces,2024.2.4,Win32,59.88023952,,,,,,,,1576.2024,1576.3174,1576.3174,1578.3173,block4,j,1,0.4822,,0,36,36,6,1,1,top_left,neutral,threatening,,,,,,,,,,,,,,,,
,,,,,356794,f,y,r,n,13,0,2025-04-06_19h19.02.624,VisualSearchFaces,2024.2.4,Win32,59.88023952,,,,,,,,1579.3181,1579.4338,1579.4338,1581.4338,block4,j,1,0.4295,,0,37,37,10,1,1,centre,friendly,neutral,,,,,,,,,,,,,,,,
,,,,,356794,f,y,r,n,13,0,2025-04-06_19h19.02.624,VisualSearchFaces,2024.2.4,Win32,59.88023952,,,,,,,,1582.4353,1582.5503,1582.5503,1584.5501,block4,f,1,0.4028,,0,38,38,26,1,0,top_left,neutral,no_target,,,,,,,,,,,,,,,,
,,,,,356794,f,y,r,n,13,0,2025-04-06_19h19.02.624,VisualSearchFaces,2024.2.4,Win32,59.88023952,,,,,,,,1585.5512,1585.6667,1585.6668,1587.6666,block4,f,1,0.3705,,0,39,39,25,1,0,centre,neutral,no_target,,,,,,,,,,,,,,,,
,,,,,356794,f,y,r,n,13,0,2025-04-06_19h19.02.624,VisualSearchFaces,2024.2.4,Win32,59.88023952,,,,,,,,1588.6679,1588.7679,1588.7679,1590.7667,block4,f,1,0.5858,,1,0,40,39,1,0,bottom_right,threatening,no_target,,,,,,,,,,,,,,,,
,,,,,356794,f,y,r,n,13,0,2025-04-06_19h19.02.624,VisualSearchFaces,2024.2.4,Win32,59.88023952,,,,,,,,1591.7678,1591.883,1591.8831,1593.883,block4,j,1,0.6132,,1,1,41,14,1,1,bottom_right,friendly,neutral,,,,,,,,,,,,,,,,
,,,,,356794,f,y,r,n,13,0,2025-04-06_19h19.02.624,VisualSearchFaces,2024.2.4,Win32,59.88023952,,,,,,,,1594.8845,1594.9995,1594.9996,1596.9997,block4,j,1,0.5232,,1,2,42,6,1,1,top_left,neutral,threatening,,,,,,,,,,,,,,,,
,,,,,356794,f,y,r,n,13,0,2025-04-06_19h19.02.624,VisualSearchFaces,2024.2.4,Win32,59.88023952,,,,,,,,1598.0004,1598.1161,1598.1161,1600.116,block4,j,1,0.4418,,1,3,43,5,1,1,centre,neutral,threatening,,,,,,,,,,,,,,,,
,,,,,356794,f,y,r,n,13,0,2025-04-06_19h19.02.624,VisualSearchFaces,2024.2.4,Win32,59.88023952,,,,,,,,1601.1172,1601.2326,1601.2327,1603.2325,block4,j,0,0.5347,,1,4,44,28,1,0,bottom_left,neutral,no_target,,,,,,,,,,,,,,,,
,,,,,356794,f,y,r,n,13,0,2025-04-06_19h19.02.624,VisualSearchFaces,2024.2.4,Win32,59.88023952,,,,,,,,1604.2335,1604.3494,1604.3495,1606.3492,block4,f,1,0.5989,,1,5,45,31,1,0,top_left,friendly,no_target,,,,,,,,,,,,,,,,
,,,,,356794,f,y,r,n,13,0,2025-04-06_19h19.02.624,VisualSearchFaces,2024.2.4,Win32,59.88023952,,,,,,,,1607.3502,1607.4661,1607.4662,1609.4656,block4,j,1,0.4262,,1,6,46,13,1,1,bottom_left,friendly,neutral,,,,,,,,,,,,,,,,
,,,,,356794,f,y,r,n,13,0,2025-04-06_19h19.02.624,VisualSearchFaces,2024.2.4,Win32,59.88023952,,,,,,,,1610.4669,1610.5821,1610.5821,1612.582,block4,f,1,0.5935,,1,7,47,30,1,0,centre,friendly,no_target,,,,,,,,,,,,,,,,
,,,,,356794,f,y,r,n,13,0,2025-04-06_19h19.02.624,VisualSearchFaces,2024.2.4,Win32,59.88023952,,,,,,,,1613.5835,1613.6821,1613.6822,1615.6818,block4,j,1,0.9819,,1,8,48,0,1,1,centre,neutral,friendly,,,,,,,,,,,,,,,,
,,,,,356794,f,y,r,n,13,0,2025-04-06_19h19.02.624,VisualSearchFaces,2024.2.4,Win32,59.88023952,,,,,,,,1616.683,1616.7819,1616.782,1618.7818,block4,j,1,0.4564,,1,9,49,12,1,1,top_right,friendly,neutral,,,,,,,,,,,,,,,,
,,,,,356794,f,y,r,n,13,0,2025-04-06_19h19.02.624,VisualSearchFaces,2024.2.4,Win32,59.88023952,,,,,,,,1619.7831,1619.882,1619.882,1621.8818,block4,f,1,0.5338,,1,10,50,21,1,0,top_left,neutral,no_target,,,,,,,,,,,,,,,,
,,,,,356794,f,y,r,n,13,0,2025-04-06_19h19.02.624,VisualSearchFaces,2024.2.4,Win32,59.88023952,,,,,,,,1622.8836,1622.9983,1622.9983,1624.998,block4,f,1,0.4995,,1,11,51,25,1,0,centre,neutral,no_target,,,,,,,,,,,,,,,,
,,,,,356794,f,y,r,n,13,0,2025-04-06_19h19.02.624,VisualSearchFaces,2024.2.4,Win32,59.88023952,,,,,,,,1625.9992,1626.1147,1626.1148,1628.1147,block4,f,1,0.4913,,1,12,52,34,1,0,bottom_right,friendly,no_target,,,,,,,,,,,,,,,,
,,,,,356794,f,y,r,n,13,0,2025-04-06_19h19.02.624,VisualSearchFaces,2024.2.4,Win32,59.88023952,,,,,,,,1629.1159,1629.2316,1629.2317,1631.2311,block4,f,1,0.575,,1,13,53,23,1,0,bottom_left,neutral,no_target,,,,,,,,,,,,,,,,
,,,,,356794,f,y,r,n,13,0,2025-04-06_19h19.02.624,VisualSearchFaces,2024.2.4,Win32,59.88023952,,,,,,,,1632.232,1632.348,1632.3481,1634.3478,block4,j,1,0.7984,,1,14,54,18,1,1,bottom_left,threatening,neutral,,,,,,,,,,,,,,,,
,,,,,356794,f,y,r,n,13,0,2025-04-06_19h19.02.624,VisualSearchFaces,2024.2.4,Win32,59.88023952,,,,,,,,1635.3488,1635.4645,1635.4646,1637.4641,block4,j,1,0.6209,,1,15,55,11,1,1,top_left,friendly,neutral,,,,,,,,,,,,,,,,
,,,,,356794,f,y,r,n,13,0,2025-04-06_19h19.02.624,VisualSearchFaces,2024.2.4,Win32,59.88023952,,,,,,,,1638.4651,1638.5808,1638.5808,1640.5805,block4,j,1,0.4056,,1,16,56,10,1,1,centre,friendly,neutral,,,,,,,,,,,,,,,,
,,,,,356794,f,y,r,n,13,0,2025-04-06_19h19.02.624,VisualSearchFaces,2024.2.4,Win32,59.88023952,,,,,,,,1641.5817,1641.6972,1641.6972,1643.6974,block4,j,1,0.395,,1,17,57,17,1,1,top_right,threatening,neutral,,,,,,,,,,,,,,,,
,,,,,356794,f,y,r,n,13,0,2025-04-06_19h19.02.624,VisualSearchFaces,2024.2.4,Win32,59.88023952,,,,,,,,1644.6984,1644.8139,1644.8139,1646.8136,block4,f,1,0.4674,,1,18,58,35,1,0,centre,threatening,no_target,,,,,,,,,,,,,,,,
,,,,,356794,f,y,r,n,13,0,2025-04-06_19h19.02.624,VisualSearchFaces,2024.2.4,Win32,59.88023952,,,,,,,,1647.8154,1647.9304,1647.9304,1649.9302,block4,f,1,0.6689,,1,19,59,33,1,0,bottom_left,friendly,no_target,,,,,,,,,,,,,,,,
,,,,,356794,f,y,r,n,13,0,2025-04-06_19h19.02.624,VisualSearchFaces,2024.2.4,Win32,59.88023952,,,,,,,,1650.931,1651.0467,1651.0467,1653.0467,block4,j,1,0.4054,,1,20,60,19,1,1,bottom_right,threatening,neutral,,,,,,,,,,,,,,,,
,,,,,356794,f,y,r,n,13,0,2025-04-06_19h19.02.624,VisualSearchFaces,2024.2.4,Win32,59.88023952,,,,,,,,1654.048,1654.1634,1654.1634,1656.1632,block4,f,1,0.4946,,1,21,61,27,1,0,top_right,neutral,no_target,,,,,,,,,,,,,,,,
,,,,,356794,f,y,r,n,13,0,2025-04-06_19h19.02.624,VisualSearchFaces,2024.2.4,Win32,59.88023952,,,,,,,,1657.164,1657.2797,1657.2797,1659.2796,block4,f,1,0.4401,,1,22,62,29,1,0,bottom_right,neutral,no_target,,,,,,,,,,,,,,,,
,,,,,356794,f,y,r,n,13,0,2025-04-06_19h19.02.624,VisualSearchFaces,2024.2.4,Win32,59.88023952,,,,,,,,1660.282,1660.3964,1660.3964,1662.3963,block4,j,1,0.5088,,1,23,63,7,1,1,top_right,neutral,threatening,,,,,,,,,,,,,,,,
,,,,,356794,f,y,r,n,13,0,2025-04-06_19h19.02.624,VisualSearchFaces,2024.2.4,Win32,59.88023952,,,,,,,,1663.3973,1663.5128,1663.5128,1665.513,block4,f,1,0.4235,,1,24,64,32,1,0,top_right,friendly,no_target,,,,,,,,,,,,,,,,
,,,,,356794,f,y,r,n,13,0,2025-04-06_19h19.02.624,VisualSearchFaces,2024.2.4,Win32,59.88023952,,,,,,,,1666.5137,1666.6293,1666.6293,1668.6292,block4,j,1,0.7892,,1,25,65,1,1,1,top_left,neutral,friendly,,,,,,,,,,,,,,,,
,,,,,356794,f,y,r,n,13,0,2025-04-06_19h19.02.624,VisualSearchFaces,2024.2.4,Win32,59.88023952,,,,,,,,1669.6304,1669.7458,1669.7458,1671.7456,block4,f,0,0.5625,,1,26,66,8,1,1,bottom_left,neutral,threatening,,,,,,,,,,,,,,,,
,,,,,356794,f,y,r,n,13,0,2025-04-06_19h19.02.624,VisualSearchFaces,2024.2.4,Win32,59.88023952,,,,,,,,1672.7472,1672.8626,1672.8626,1674.8623,block4,j,1,0.4351,,1,27,67,4,1,1,bottom_right,neutral,friendly,,,,,,,,,,,,,,,,
,,,,,356794,f,y,r,n,13,0,2025-04-06_19h19.02.624,VisualSearchFaces,2024.2.4,Win32,59.88023952,,,,,,,,1675.8631,1675.962,1675.9621,1677.962,block4,f,1,0.6455,,1,28,68,37,1,0,top_right,threatening,no_target,,,,,,,,,,,,,,,,
,,,,,356794,f,y,r,n,13,0,2025-04-06_19h19.02.624,VisualSearchFaces,2024.2.4,Win32,59.88023952,,,,,,,,1678.9632,1679.0623,1679.0624,1681.0619,block4,j,1,0.9527,,1,29,69,2,1,1,top_right,neutral,friendly,,,,,,,,,,,,,,,,
,,,,,356794,f,y,r,n,13,0,2025-04-06_19h19.02.624,VisualSearchFaces,2024.2.4,Win32,59.88023952,,,,,,,,1682.063,1682.162,1682.162,1684.1621,block4,f,1,0.4373,,1,30,70,26,1,0,top_left,neutral,no_target,,,,,,,,,,,,,,,,
,,,,,356794,f,y,r,n,13,0,2025-04-06_19h19.02.624,VisualSearchFaces,2024.2.4,Win32,59.88023952,,,,,,,,1685.163,1685.2789,1685.2789,1687.2784,block4,f,1,0.5096,,1,31,71,38,1,0,bottom_left,threatening,no_target,,,,,,,,,,,,,,,,
,,,,,356794,f,y,r,n,13,0,2025-04-06_19h19.02.624,VisualSearchFaces,2024.2.4,Win32,59.88023952,,,,,,,,1688.2799,1688.3949,1688.3949,1690.3948,block4,j,1,0.6856,,1,32,72,9,1,1,bottom_right,neutral,threatening,,,,,,,,,,,,,,,,
,,,,,356794,f,y,r,n,13,0,2025-04-06_19h19.02.624,VisualSearchFaces,2024.2.4,Win32,59.88023952,,,,,,,,1691.3962,1691.5113,1691.5113,1693.5112,block4,f,1,0.4332,,1,33,73,24,1,0,bottom_right,neutral,no_target,,,,,,,,,,,,,,,,
,,,,,356794,f,y,r,n,13,0,2025-04-06_19h19.02.624,VisualSearchFaces,2024.2.4,Win32,59.88023952,,,,,,,,1694.5122,1694.6279,1694.628,1696.628,block4,f,1,0.3703,,1,34,74,22,1,0,top_right,neutral,no_target,,,,,,,,,,,,,,,,
,,,,,356794,f,y,r,n,13,0,2025-04-06_19h19.02.624,VisualSearchFaces,2024.2.4,Win32,59.88023952,,,,,,,,1697.6292,1697.7444,1697.7444,1699.7442,block4,f,1,0.5181,,1,35,75,36,1,0,top_left,threatening,no_target,,,,,,,,,,,,,,,,
,,,,,356794,f,y,r,n,13,0,2025-04-06_19h19.02.624,VisualSearchFaces,2024.2.4,Win32,59.88023952,,,,,,,,1700.7463,1700.861,1700.8611,1702.8609,block4,j,1,0.5982,,1,36,76,15,1,1,centre,threatening,neutral,,,,,,,,,,,,,,,,
,,,,,356794,f,y,r,n,13,0,2025-04-06_19h19.02.624,VisualSearchFaces,2024.2.4,Win32,59.88023952,,,,,,,,1703.8634,1703.9773,1703.9774,1705.9773,block4,j,0,0.4268,,1,37,77,20,1,0,centre,neutral,no_target,,,,,,,,,,,,,,,,
,,,,,356794,f,y,r,n,13,0,2025-04-06_19h19.02.624,VisualSearchFaces,2024.2.4,Win32,59.88023952,,,,,,,,1706.9787,1707.0778,1707.0778,1709.0771,block4,j,1,0.5906,,1,38,78,3,1,1,bottom_left,neutral,friendly,,,,,,,,,,,,,,,,
,,,,,356794,f,y,r,n,13,0,2025-04-06_19h19.02.624,VisualSearchFaces,2024.2.4,Win32,59.88023952,,,,,,,,1710.0792,1710.1939,1710.1939,1712.1939,block4,j,1,0.7514,,1,39,79,16,1,1,top_left,threatening,neutral,,,,,,,,,,,,,,,,
,,,,,356794,f,y,r,n,13,0,2025-04-06_19h19.02.624,VisualSearchFaces,2024.2.4,Win32,59.88023952,,,,,,,,,,,,,,,,,,,,,,,,,,1712.1952,1716.6099,space,4.4059,,1716.6105,1771.2428,like weird upside down smileys,1,[1771.2415999999641],[1771.2415999999641],,,,,
,,,,,356794,f,y,r,n,13,0,2025-04-06_19h19.02.624,VisualSearchFaces,2024.2.4,Win32,59.88023952,,,,,,,,,,,,,,,,,,,,,,,,,,,,,,,,,,,,,1771.2436,1784.057,space,12.7934,
