Welcome.started,Welcome.stopped,keyboard_space_welcome.keys,keyboard_space_welcome.rt,keyboard_space_welcome.duration,participant,gender,(corrected) normal vision,handedness,exp vse,session,skip_intro,date,expName,psychopyVersion,OS,frameRate,stimulus_exposure.started,stimulus_exposure.stopped,Block_intro.started,Block_intro.stopped,keyboard_space.keys,keyboard_space.rt,keyboard_space.duration,Stimulus.started,Stimulus.stopped,fixation_ending.started,fixation_ending.stopped,block_id,keyboard_response.keys,keyboard_response.corr,trials.thisRepN,trials.thisTrialN,trials.thisN,trials.thisIndex,trials.ran,target_presence,target_position,background_emotion,target_emotion,keyboard_response.rt,keyboard_response.duration,Block_outro.started,Block_outro.stopped,keyboard_space_end.keys,keyboard_space_end.rt,keyboard_space_end.duration,Question_about_stimulus.started,Question_about_stimulus.stopped,textbox_response.text,button.numClicks,button.timesOn,button.timesOff,Thanks.started,Thanks.stopped,keyboard_space_goodbye.keys,keyboard_space_goodbye.rt,keyboard_space_goodbye.duration
0,37.242,space,37.201,,370533,m,y,r,n,13,0,2025-04-05_22h21.26.349,VisualSearchFaces,2024.2.4,MacIntel,62.5,,,,,,,,,,,,,,,,,,,,,,,,,,,,,,,,,,,,,,,,,
,,,,,370533,m,y,r,n,13,0,2025-04-05_22h21.26.349,VisualSearchFaces,2024.2.4,MacIntel,62.5,58.351,61.367,61.377,82.767,space,21.358,,83.769,84.034,84.034,86.034,practice1,,0,0,0,0,36,1,0,top_left,threatening,no_target,,,,,,,,,,,,,,,,,,
,,,,,370533,m,y,r,n,13,0,2025-04-05_22h21.26.349,VisualSearchFaces,2024.2.4,MacIntel,62.5,,,,,,,,87.034,87.3,87.3,89.3,practice1,f,0,0,1,1,0,1,1,centre,neutral,friendly,0.493,,,,,,,,,,,,,,,,,
,,,,,370533,m,y,r,n,13,0,2025-04-05_22h21.26.349,VisualSearchFaces,2024.2.4,MacIntel,62.5,,,,,,,,90.301,90.566,90.566,92.567,practice1,j,0,0,2,2,39,1,0,bottom_right,threatening,no_target,0.368,,,,,,,,,,,,,,,,,
,,,,,370533,m,y,r,n,13,0,2025-04-05_22h21.26.349,VisualSearchFaces,2024.2.4,MacIntel,62.5,,,,,,,,93.567,93.834,93.834,95.833,practice1,f,1,0,3,3,32,1,0,top_right,friendly,no_target,0.383,,,,,,,,,,,,,,,,,
,,,,,370533,m,y,r,n,13,0,2025-04-05_22h21.26.349,VisualSearchFaces,2024.2.4,MacIntel,62.5,,,,,,,,96.834,97.1,97.1,99.1,practice1,f,1,0,4,4,30,1,0,centre,friendly,no_target,0.349,,,,,,,,,,,,,,,,,
,,,,,370533,m,y,r,n,13,0,2025-04-05_22h21.26.349,VisualSearchFaces,2024.2.4,MacIntel,62.5,,,,,,,,100.101,100.366,100.366,102.367,practice1,f,1,0,5,5,37,1,0,top_right,threatening,no_target,0.3,,,,,,,,,,,,,,,,,
,,,,,370533,m,y,r,n,13,0,2025-04-05_22h21.26.349,VisualSearchFaces,2024.2.4,MacIntel,62.5,,,,,,,,103.368,103.633,103.633,105.634,practice1,f,1,0,6,6,22,1,0,top_right,neutral,no_target,0.435,,,,,,,,,,,,,,,,,
,,,,,370533,m,y,r,n,13,0,2025-04-05_22h21.26.349,VisualSearchFaces,2024.2.4,MacIntel,62.5,,,,,,,,106.634,106.9,106.9,108.9,practice1,j,1,0,7,7,10,1,1,centre,friendly,neutral,0.349,,,,,,,,,,,,,,,,,
,,,,,370533,m,y,r,n,13,0,2025-04-05_22h21.26.349,VisualSearchFaces,2024.2.4,MacIntel,62.5,,,,,,,,109.901,110.167,110.167,112.167,practice1,j,1,0,8,8,4,1,1,bottom_right,neutral,friendly,1.085,,,,,,,,,,,,,,,,,
,,,,,370533,m,y,r,n,13,0,2025-04-05_22h21.26.349,VisualSearchFaces,2024.2.4,MacIntel,62.5,,,,,,,,113.168,113.433,113.433,115.433,practice1,f,1,0,9,9,23,1,0,bottom_left,neutral,no_target,1.171,,,,,,,,,,,,,,,,,
,,,,,370533,m,y,r,n,13,0,2025-04-05_22h21.26.349,VisualSearchFaces,2024.2.4,MacIntel,62.5,,,,,,,,116.434,116.7,116.7,118.7,practice1,j,1,0,10,10,15,1,1,centre,threatening,neutral,1.007,,,,,,,,,,,,,,,,,
,,,,,370533,m,y,r,n,13,0,2025-04-05_22h21.26.349,VisualSearchFaces,2024.2.4,MacIntel,62.5,,,,,,,,119.701,119.967,119.967,121.967,practice1,f,1,0,11,11,21,1,0,top_left,neutral,no_target,0.926,,,,,,,,,,,,,,,,,
,,,,,370533,m,y,r,n,13,0,2025-04-05_22h21.26.349,VisualSearchFaces,2024.2.4,MacIntel,62.5,,,,,,,,122.967,123.233,123.233,125.233,practice1,j,1,0,12,12,16,1,1,top_left,threatening,neutral,0.623,,,,,,,,,,,,,,,,,
,,,,,370533,m,y,r,n,13,0,2025-04-05_22h21.26.349,VisualSearchFaces,2024.2.4,MacIntel,62.5,,,,,,,,126.234,126.5,126.5,128.5,practice1,f,1,0,13,13,33,1,0,bottom_left,friendly,no_target,0.667,,,,,,,,,,,,,,,,,
,,,,,370533,m,y,r,n,13,0,2025-04-05_22h21.26.349,VisualSearchFaces,2024.2.4,MacIntel,62.5,,,,,,,,129.5,129.767,129.767,131.766,practice1,f,1,0,14,14,28,1,0,bottom_left,neutral,no_target,0.409,,,,,,,,,,,,,,,,,
,,,,,370533,m,y,r,n,13,0,2025-04-05_22h21.26.349,VisualSearchFaces,2024.2.4,MacIntel,62.5,,,,,,,,132.767,133.033,133.033,135.033,practice1,j,1,0,15,15,11,1,1,top_left,friendly,neutral,0.985,,,,,,,,,,,,,,,,,
,,,,,370533,m,y,r,n,13,0,2025-04-05_22h21.26.349,VisualSearchFaces,2024.2.4,MacIntel,62.5,,,,,,,,136.034,136.3,136.3,138.3,practice1,f,1,0,16,16,38,1,0,bottom_left,threatening,no_target,0.549,,,,,,,,,,,,,,,,,
,,,,,370533,m,y,r,n,13,0,2025-04-05_22h21.26.349,VisualSearchFaces,2024.2.4,MacIntel,62.5,,,,,,,,139.301,139.566,139.566,141.566,practice1,j,1,0,17,17,5,1,1,centre,neutral,threatening,0.484,,,,,,,,,,,,,,,,,
,,,,,370533,m,y,r,n,13,0,2025-04-05_22h21.26.349,VisualSearchFaces,2024.2.4,MacIntel,62.5,,,,,,,,142.567,142.833,142.833,144.833,practice1,j,1,0,18,18,9,1,1,bottom_right,neutral,threatening,0.673,,,,,,,,,,,,,,,,,
,,,,,370533,m,y,r,n,13,0,2025-04-05_22h21.26.349,VisualSearchFaces,2024.2.4,MacIntel,62.5,,,,,,,,145.834,146.1,146.1,148.1,practice1,f,1,0,19,19,35,1,0,centre,threatening,no_target,0.425,,,,,,,,,,,,,,,,,
,,,,,370533,m,y,r,n,13,0,2025-04-05_22h21.26.349,VisualSearchFaces,2024.2.4,MacIntel,62.5,,,,,,,,149.101,149.366,149.367,151.367,practice1,j,1,0,20,20,12,1,1,top_right,friendly,neutral,0.52,,,,,,,,,,,,,,,,,
,,,,,370533,m,y,r,n,13,0,2025-04-05_22h21.26.349,VisualSearchFaces,2024.2.4,MacIntel,62.5,,,,,,,,152.367,152.633,152.633,154.633,practice1,f,1,0,21,21,25,1,0,centre,neutral,no_target,0.402,,,,,,,,,,,,,,,,,
,,,,,370533,m,y,r,n,13,0,2025-04-05_22h21.26.349,VisualSearchFaces,2024.2.4,MacIntel,62.5,,,,,,,,155.634,155.9,155.9,157.9,practice1,f,1,0,22,22,24,1,0,bottom_right,neutral,no_target,0.516,,,,,,,,,,,,,,,,,
,,,,,370533,m,y,r,n,13,0,2025-04-05_22h21.26.349,VisualSearchFaces,2024.2.4,MacIntel,62.5,,,,,,,,158.901,159.166,159.166,161.166,practice1,j,1,0,23,23,6,1,1,top_left,neutral,threatening,0.302,,,,,,,,,,,,,,,,,
,,,,,370533,m,y,r,n,13,0,2025-04-05_22h21.26.349,VisualSearchFaces,2024.2.4,MacIntel,62.5,,,,,,,,162.167,162.433,162.433,164.433,practice1,j,1,0,24,24,2,1,1,top_right,neutral,friendly,0.36,,,,,,,,,,,,,,,,,
,,,,,370533,m,y,r,n,13,0,2025-04-05_22h21.26.349,VisualSearchFaces,2024.2.4,MacIntel,62.5,,,,,,,,165.434,165.7,165.7,167.7,practice1,j,1,0,25,25,8,1,1,bottom_left,neutral,threatening,0.375,,,,,,,,,,,,,,,,,
,,,,,370533,m,y,r,n,13,0,2025-04-05_22h21.26.349,VisualSearchFaces,2024.2.4,MacIntel,62.5,,,,,,,,168.7,168.966,168.966,170.966,practice1,j,1,0,26,26,7,1,1,top_right,neutral,threatening,0.307,,,,,,,,,,,,,,,,,
,,,,,370533,m,y,r,n,13,0,2025-04-05_22h21.26.349,VisualSearchFaces,2024.2.4,MacIntel,62.5,,,,,,,,171.967,172.233,172.233,174.233,practice1,f,1,0,27,27,31,1,0,top_left,friendly,no_target,0.467,,,,,,,,,,,,,,,,,
,,,,,370533,m,y,r,n,13,0,2025-04-05_22h21.26.349,VisualSearchFaces,2024.2.4,MacIntel,62.5,,,,,,,,175.234,175.5,175.5,177.5,practice1,j,1,0,28,28,18,1,1,bottom_left,threatening,neutral,0.727,,,,,,,,,,,,,,,,,
,,,,,370533,m,y,r,n,13,0,2025-04-05_22h21.26.349,VisualSearchFaces,2024.2.4,MacIntel,62.5,,,,,,,,178.491,178.749,178.749,180.749,practice1,j,1,0,29,29,19,1,1,bottom_right,threatening,neutral,0.529,,,,,,,,,,,,,,,,,
,,,,,370533,m,y,r,n,13,0,2025-04-05_22h21.26.349,VisualSearchFaces,2024.2.4,MacIntel,62.5,,,,,,,,181.751,182.016,182.016,184.016,practice1,f,1,0,30,30,20,1,0,centre,neutral,no_target,0.285,,,,,,,,,,,,,,,,,
,,,,,370533,m,y,r,n,13,0,2025-04-05_22h21.26.349,VisualSearchFaces,2024.2.4,MacIntel,62.5,,,,,,,,185.017,185.283,185.283,187.283,practice1,j,1,0,31,31,1,1,1,top_left,neutral,friendly,0.387,,,,,,,,,,,,,,,,,
,,,,,370533,m,y,r,n,13,0,2025-04-05_22h21.26.349,VisualSearchFaces,2024.2.4,MacIntel,62.5,,,,,,,,188.284,188.55,188.55,190.549,practice1,f,1,0,32,32,27,1,0,top_right,neutral,no_target,0.434,,,,,,,,,,,,,,,,,
,,,,,370533,m,y,r,n,13,0,2025-04-05_22h21.26.349,VisualSearchFaces,2024.2.4,MacIntel,62.5,,,,,,,,191.551,191.816,191.816,193.816,practice1,j,1,0,33,33,13,1,1,bottom_left,friendly,neutral,0.401,,,,,,,,,,,,,,,,,
,,,,,370533,m,y,r,n,13,0,2025-04-05_22h21.26.349,VisualSearchFaces,2024.2.4,MacIntel,62.5,,,,,,,,194.817,195.083,195.083,197.083,practice1,f,1,0,34,34,26,1,0,top_left,neutral,no_target,0.317,,,,,,,,,,,,,,,,,
,,,,,370533,m,y,r,n,13,0,2025-04-05_22h21.26.349,VisualSearchFaces,2024.2.4,MacIntel,62.5,,,,,,,,198.084,198.35,198.35,200.349,practice1,j,1,0,35,35,14,1,1,bottom_right,friendly,neutral,0.524,,,,,,,,,,,,,,,,,
,,,,,370533,m,y,r,n,13,0,2025-04-05_22h21.26.349,VisualSearchFaces,2024.2.4,MacIntel,62.5,,,,,,,,201.35,201.616,201.616,203.616,practice1,f,1,0,36,36,34,1,0,bottom_right,friendly,no_target,0.508,,,,,,,,,,,,,,,,,
,,,,,370533,m,y,r,n,13,0,2025-04-05_22h21.26.349,VisualSearchFaces,2024.2.4,MacIntel,62.5,,,,,,,,204.617,204.883,204.883,206.883,practice1,j,1,0,37,37,3,1,1,bottom_left,neutral,friendly,0.308,,,,,,,,,,,,,,,,,
,,,,,370533,m,y,r,n,13,0,2025-04-05_22h21.26.349,VisualSearchFaces,2024.2.4,MacIntel,62.5,,,,,,,,207.884,208.15,208.15,210.149,practice1,j,1,0,38,38,17,1,1,top_right,threatening,neutral,0.559,,,,,,,,,,,,,,,,,
,,,,,370533,m,y,r,n,13,0,2025-04-05_22h21.26.349,VisualSearchFaces,2024.2.4,MacIntel,62.5,,,,,,,,211.151,211.416,211.416,213.416,practice1,f,1,0,39,39,29,1,0,bottom_right,neutral,no_target,1.018,,,,,,,,,,,,,,,,,
,,,,,370533,m,y,r,n,13,0,2025-04-05_22h21.26.349,VisualSearchFaces,2024.2.4,MacIntel,62.5,,,240.853,253.532,space,12.644,,254.533,254.633,254.633,256.633,practice2,j,1,0,0,0,3,1,1,bottom_left,neutral,friendly,0.611,,213.417,240.85,space,27.402,,,,,,,,,,,,
,,,,,370533,m,y,r,n,13,0,2025-04-05_22h21.26.349,VisualSearchFaces,2024.2.4,MacIntel,62.5,,,,,,,,257.633,257.749,257.749,259.749,practice2,j,1,0,1,1,14,1,1,bottom_right,friendly,neutral,0.502,,,,,,,,,,,,,,,,,
,,,,,370533,m,y,r,n,13,0,2025-04-05_22h21.26.349,VisualSearchFaces,2024.2.4,MacIntel,62.5,,,,,,,,260.749,260.848,260.848,262.849,practice2,j,1,0,2,2,7,1,1,top_right,neutral,threatening,0.434,,,,,,,,,,,,,,,,,
,,,,,370533,m,y,r,n,13,0,2025-04-05_22h21.26.349,VisualSearchFaces,2024.2.4,MacIntel,62.5,,,,,,,,263.849,263.949,263.949,265.949,practice2,j,1,0,3,3,12,1,1,top_right,friendly,neutral,0.637,,,,,,,,,,,,,,,,,
,,,,,370533,m,y,r,n,13,0,2025-04-05_22h21.26.349,VisualSearchFaces,2024.2.4,MacIntel,62.5,,,,,,,,266.95,267.065,267.066,269.065,practice2,j,1,0,4,4,15,1,1,centre,threatening,neutral,0.63,,,,,,,,,,,,,,,,,
,,,,,370533,m,y,r,n,13,0,2025-04-05_22h21.26.349,VisualSearchFaces,2024.2.4,MacIntel,62.5,,,,,,,,270.066,270.166,270.166,272.166,practice2,f,1,0,5,5,39,1,0,bottom_right,threatening,no_target,0.518,,,,,,,,,,,,,,,,,
,,,,,370533,m,y,r,n,13,0,2025-04-05_22h21.26.349,VisualSearchFaces,2024.2.4,MacIntel,62.5,,,,,,,,273.166,273.266,273.266,275.266,practice2,f,1,0,6,6,29,1,0,bottom_right,neutral,no_target,1.35,,,,,,,,,,,,,,,,,
,,,,,370533,m,y,r,n,13,0,2025-04-05_22h21.26.349,VisualSearchFaces,2024.2.4,MacIntel,62.5,,,,,,,,276.266,276.382,276.382,278.382,practice2,f,1,0,7,7,35,1,0,centre,threatening,no_target,0.496,,,,,,,,,,,,,,,,,
,,,,,370533,m,y,r,n,13,0,2025-04-05_22h21.26.349,VisualSearchFaces,2024.2.4,MacIntel,62.5,,,,,,,,279.383,279.499,279.499,281.499,practice2,j,1,0,8,8,2,1,1,top_right,neutral,friendly,0.479,,,,,,,,,,,,,,,,,
,,,,,370533,m,y,r,n,13,0,2025-04-05_22h21.26.349,VisualSearchFaces,2024.2.4,MacIntel,62.5,,,,,,,,282.5,282.616,282.616,284.615,practice2,j,1,0,9,9,10,1,1,centre,friendly,neutral,0.965,,,,,,,,,,,,,,,,,
,,,,,370533,m,y,r,n,13,0,2025-04-05_22h21.26.349,VisualSearchFaces,2024.2.4,MacIntel,62.5,,,,,,,,285.617,285.731,285.732,287.732,practice2,j,1,0,10,10,13,1,1,bottom_left,friendly,neutral,0.636,,,,,,,,,,,,,,,,,
,,,,,370533,m,y,r,n,13,0,2025-04-05_22h21.26.349,VisualSearchFaces,2024.2.4,MacIntel,62.5,,,,,,,,288.733,288.832,288.832,290.832,practice2,f,1,0,11,11,30,1,0,centre,friendly,no_target,0.625,,,,,,,,,,,,,,,,,
,,,,,370533,m,y,r,n,13,0,2025-04-05_22h21.26.349,VisualSearchFaces,2024.2.4,MacIntel,62.5,,,,,,,,291.833,291.932,291.932,293.932,practice2,f,1,0,12,12,20,1,0,centre,neutral,no_target,1.224,,,,,,,,,,,,,,,,,
,,,,,370533,m,y,r,n,13,0,2025-04-05_22h21.26.349,VisualSearchFaces,2024.2.4,MacIntel,62.5,,,,,,,,294.933,295.049,295.049,297.049,practice2,j,1,0,13,13,19,1,1,bottom_right,threatening,neutral,0.634,,,,,,,,,,,,,,,,,
,,,,,370533,m,y,r,n,13,0,2025-04-05_22h21.26.349,VisualSearchFaces,2024.2.4,MacIntel,62.5,,,,,,,,298.05,298.149,298.149,300.149,practice2,f,1,0,14,14,31,1,0,top_left,friendly,no_target,0.566,,,,,,,,,,,,,,,,,
,,,,,370533,m,y,r,n,13,0,2025-04-05_22h21.26.349,VisualSearchFaces,2024.2.4,MacIntel,62.5,,,,,,,,301.15,301.249,301.249,303.248,practice2,j,1,0,15,15,17,1,1,top_right,threatening,neutral,0.536,,,,,,,,,,,,,,,,,
,,,,,370533,m,y,r,n,13,0,2025-04-05_22h21.26.349,VisualSearchFaces,2024.2.4,MacIntel,62.5,,,,,,,,304.249,304.366,304.366,306.365,practice2,j,1,0,16,16,0,1,1,centre,neutral,friendly,0.619,,,,,,,,,,,,,,,,,
,,,,,370533,m,y,r,n,13,0,2025-04-05_22h21.26.349,VisualSearchFaces,2024.2.4,MacIntel,62.5,,,,,,,,307.366,307.482,307.482,309.482,practice2,f,1,0,17,17,27,1,0,top_right,neutral,no_target,0.767,,,,,,,,,,,,,,,,,
,,,,,370533,m,y,r,n,13,0,2025-04-05_22h21.26.349,VisualSearchFaces,2024.2.4,MacIntel,62.5,,,,,,,,310.483,310.582,310.582,312.582,practice2,j,1,0,18,18,9,1,1,bottom_right,neutral,threatening,0.885,,,,,,,,,,,,,,,,,
,,,,,370533,m,y,r,n,13,0,2025-04-05_22h21.26.349,VisualSearchFaces,2024.2.4,MacIntel,62.5,,,,,,,,313.583,313.682,313.682,315.682,practice2,f,0,0,19,19,16,1,1,top_left,threatening,neutral,0.486,,,,,,,,,,,,,,,,,
,,,,,370533,m,y,r,n,13,0,2025-04-05_22h21.26.349,VisualSearchFaces,2024.2.4,MacIntel,62.5,,,,,,,,316.682,316.798,316.798,318.798,practice2,f,1,0,20,20,37,1,0,top_right,threatening,no_target,0.441,,,,,,,,,,,,,,,,,
,,,,,370533,m,y,r,n,13,0,2025-04-05_22h21.26.349,VisualSearchFaces,2024.2.4,MacIntel,62.5,,,,,,,,319.799,319.915,319.915,321.915,practice2,f,1,0,21,21,28,1,0,bottom_left,neutral,no_target,1.021,,,,,,,,,,,,,,,,,
,,,,,370533,m,y,r,n,13,0,2025-04-05_22h21.26.349,VisualSearchFaces,2024.2.4,MacIntel,62.5,,,,,,,,322.916,323.032,323.032,325.032,practice2,f,1,0,22,22,26,1,0,top_left,neutral,no_target,0.626,,,,,,,,,,,,,,,,,
,,,,,370533,m,y,r,n,13,0,2025-04-05_22h21.26.349,VisualSearchFaces,2024.2.4,MacIntel,62.5,,,,,,,,326.033,326.132,326.132,328.132,practice2,f,1,0,23,23,22,1,0,top_right,neutral,no_target,0.44,,,,,,,,,,,,,,,,,
,,,,,370533,m,y,r,n,13,0,2025-04-05_22h21.26.349,VisualSearchFaces,2024.2.4,MacIntel,62.5,,,,,,,,329.133,329.249,329.249,331.248,practice2,j,1,0,24,24,8,1,1,bottom_left,neutral,threatening,0.442,,,,,,,,,,,,,,,,,
,,,,,370533,m,y,r,n,13,0,2025-04-05_22h21.26.349,VisualSearchFaces,2024.2.4,MacIntel,62.5,,,,,,,,332.249,332.365,332.365,334.365,practice2,j,1,0,25,25,6,1,1,top_left,neutral,threatening,0.785,,,,,,,,,,,,,,,,,
,,,,,370533,m,y,r,n,13,0,2025-04-05_22h21.26.349,VisualSearchFaces,2024.2.4,MacIntel,62.5,,,,,,,,335.366,335.482,335.482,337.482,practice2,f,1,0,26,26,36,1,0,top_left,threatening,no_target,0.534,,,,,,,,,,,,,,,,,
,,,,,370533,m,y,r,n,13,0,2025-04-05_22h21.26.349,VisualSearchFaces,2024.2.4,MacIntel,62.5,,,,,,,,338.483,338.582,338.582,340.582,practice2,f,1,0,27,27,21,1,0,top_left,neutral,no_target,0.784,,,,,,,,,,,,,,,,,
,,,,,370533,m,y,r,n,13,0,2025-04-05_22h21.26.349,VisualSearchFaces,2024.2.4,MacIntel,62.5,,,,,,,,341.582,341.682,341.682,343.682,practice2,j,1,0,28,28,4,1,1,bottom_right,neutral,friendly,0.903,,,,,,,,,,,,,,,,,
,,,,,370533,m,y,r,n,13,0,2025-04-05_22h21.26.349,VisualSearchFaces,2024.2.4,MacIntel,62.5,,,,,,,,344.683,344.798,344.798,346.798,practice2,f,1,0,29,29,25,1,0,centre,neutral,no_target,0.766,,,,,,,,,,,,,,,,,
,,,,,370533,m,y,r,n,13,0,2025-04-05_22h21.26.349,VisualSearchFaces,2024.2.4,MacIntel,62.5,,,,,,,,347.799,347.899,347.899,349.898,practice2,f,1,0,30,30,34,1,0,bottom_right,friendly,no_target,0.795,,,,,,,,,,,,,,,,,
,,,,,370533,m,y,r,n,13,0,2025-04-05_22h21.26.349,VisualSearchFaces,2024.2.4,MacIntel,62.5,,,,,,,,350.9,351.015,351.015,353.015,practice2,f,1,0,31,31,33,1,0,bottom_left,friendly,no_target,0.541,,,,,,,,,,,,,,,,,
,,,,,370533,m,y,r,n,13,0,2025-04-05_22h21.26.349,VisualSearchFaces,2024.2.4,MacIntel,62.5,,,,,,,,354.016,354.115,354.115,356.115,practice2,j,1,0,32,32,1,1,1,top_left,neutral,friendly,0.673,,,,,,,,,,,,,,,,,
,,,,,370533,m,y,r,n,13,0,2025-04-05_22h21.26.349,VisualSearchFaces,2024.2.4,MacIntel,62.5,,,,,,,,357.116,357.232,357.232,359.232,practice2,f,1,0,33,33,23,1,0,bottom_left,neutral,no_target,0.669,,,,,,,,,,,,,,,,,
,,,,,370533,m,y,r,n,13,0,2025-04-05_22h21.26.349,VisualSearchFaces,2024.2.4,MacIntel,62.5,,,,,,,,360.232,360.332,360.332,362.331,practice2,f,1,0,34,34,38,1,0,bottom_left,threatening,no_target,0.552,,,,,,,,,,,,,,,,,
,,,,,370533,m,y,r,n,13,0,2025-04-05_22h21.26.349,VisualSearchFaces,2024.2.4,MacIntel,62.5,,,,,,,,363.332,363.448,363.448,365.448,practice2,j,1,0,35,35,18,1,1,bottom_left,threatening,neutral,0.634,,,,,,,,,,,,,,,,,
,,,,,370533,m,y,r,n,13,0,2025-04-05_22h21.26.349,VisualSearchFaces,2024.2.4,MacIntel,62.5,,,,,,,,366.449,366.548,366.548,368.548,practice2,f,1,0,36,36,24,1,0,bottom_right,neutral,no_target,0.643,,,,,,,,,,,,,,,,,
,,,,,370533,m,y,r,n,13,0,2025-04-05_22h21.26.349,VisualSearchFaces,2024.2.4,MacIntel,62.5,,,,,,,,369.549,369.648,369.648,371.647,practice2,j,1,0,37,37,5,1,1,centre,neutral,threatening,0.666,,,,,,,,,,,,,,,,,
,,,,,370533,m,y,r,n,13,0,2025-04-05_22h21.26.349,VisualSearchFaces,2024.2.4,MacIntel,62.5,,,,,,,,372.649,372.765,372.765,374.765,practice2,f,0,0,38,38,11,1,1,top_left,friendly,neutral,0.527,,,,,,,,,,,,,,,,,
,,,,,370533,m,y,r,n,13,0,2025-04-05_22h21.26.349,VisualSearchFaces,2024.2.4,MacIntel,62.5,,,,,,,,375.766,375.865,375.865,377.865,practice2,f,1,0,39,39,32,1,0,top_right,friendly,no_target,0.396,,,,,,,,,,,,,,,,,
,,,,,370533,m,y,r,n,13,0,2025-04-05_22h21.26.349,VisualSearchFaces,2024.2.4,MacIntel,62.5,,,390.884,394.915,space,4.004,,395.916,396.032,396.032,398.031,block1,f,1,0,0,0,21,1,0,top_left,neutral,no_target,1.093,,377.866,390.881,space,12.995,,,,,,,,,,,,
,,,,,370533,m,y,r,n,13,0,2025-04-05_22h21.26.349,VisualSearchFaces,2024.2.4,MacIntel,62.5,,,,,,,,399.032,399.148,399.148,401.148,block1,f,1,0,1,1,32,1,0,top_right,friendly,no_target,0.562,,,,,,,,,,,,,,,,,
,,,,,370533,m,y,r,n,13,0,2025-04-05_22h21.26.349,VisualSearchFaces,2024.2.4,MacIntel,62.5,,,,,,,,402.149,402.265,402.265,404.265,block1,f,1,0,2,2,35,1,0,centre,threatening,no_target,0.475,,,,,,,,,,,,,,,,,
,,,,,370533,m,y,r,n,13,0,2025-04-05_22h21.26.349,VisualSearchFaces,2024.2.4,MacIntel,62.5,,,,,,,,405.265,405.381,405.382,407.381,block1,j,1,0,3,3,17,1,1,top_right,threatening,neutral,0.49,,,,,,,,,,,,,,,,,
,,,,,370533,m,y,r,n,13,0,2025-04-05_22h21.26.349,VisualSearchFaces,2024.2.4,MacIntel,62.5,,,,,,,,408.382,408.482,408.482,410.481,block1,j,1,0,4,4,8,1,1,bottom_left,neutral,threatening,1.017,,,,,,,,,,,,,,,,,
,,,,,370533,m,y,r,n,13,0,2025-04-05_22h21.26.349,VisualSearchFaces,2024.2.4,MacIntel,62.5,,,,,,,,411.481,411.581,411.581,413.581,block1,j,1,0,5,5,6,1,1,top_left,neutral,threatening,0.573,,,,,,,,,,,,,,,,,
,,,,,370533,m,y,r,n,13,0,2025-04-05_22h21.26.349,VisualSearchFaces,2024.2.4,MacIntel,62.5,,,,,,,,414.582,414.698,414.698,416.698,block1,j,1,0,6,6,0,1,1,centre,neutral,friendly,0.737,,,,,,,,,,,,,,,,,
,,,,,370533,m,y,r,n,13,0,2025-04-05_22h21.26.349,VisualSearchFaces,2024.2.4,MacIntel,62.5,,,,,,,,417.698,417.798,417.798,419.798,block1,f,1,0,7,7,34,1,0,bottom_right,friendly,no_target,0.449,,,,,,,,,,,,,,,,,
,,,,,370533,m,y,r,n,13,0,2025-04-05_22h21.26.349,VisualSearchFaces,2024.2.4,MacIntel,62.5,,,,,,,,420.799,420.898,420.898,422.898,block1,f,1,0,8,8,25,1,0,centre,neutral,no_target,0.584,,,,,,,,,,,,,,,,,
,,,,,370533,m,y,r,n,13,0,2025-04-05_22h21.26.349,VisualSearchFaces,2024.2.4,MacIntel,62.5,,,,,,,,423.899,423.998,423.998,425.998,block1,f,1,0,9,9,20,1,0,centre,neutral,no_target,0.475,,,,,,,,,,,,,,,,,
,,,,,370533,m,y,r,n,13,0,2025-04-05_22h21.26.349,VisualSearchFaces,2024.2.4,MacIntel,62.5,,,,,,,,426.998,427.098,427.098,429.098,block1,j,1,0,10,10,13,1,1,bottom_left,friendly,neutral,0.692,,,,,,,,,,,,,,,,,
,,,,,370533,m,y,r,n,13,0,2025-04-05_22h21.26.349,VisualSearchFaces,2024.2.4,MacIntel,62.5,,,,,,,,430.098,430.198,430.198,432.198,block1,f,1,0,11,11,24,1,0,bottom_right,neutral,no_target,0.576,,,,,,,,,,,,,,,,,
,,,,,370533,m,y,r,n,13,0,2025-04-05_22h21.26.349,VisualSearchFaces,2024.2.4,MacIntel,62.5,,,,,,,,433.199,433.315,433.315,435.315,block1,f,1,0,12,12,22,1,0,top_right,neutral,no_target,0.384,,,,,,,,,,,,,,,,,
,,,,,370533,m,y,r,n,13,0,2025-04-05_22h21.26.349,VisualSearchFaces,2024.2.4,MacIntel,62.5,,,,,,,,436.315,436.414,436.415,438.415,block1,j,1,0,13,13,10,1,1,centre,friendly,neutral,0.525,,,,,,,,,,,,,,,,,
,,,,,370533,m,y,r,n,13,0,2025-04-05_22h21.26.349,VisualSearchFaces,2024.2.4,MacIntel,62.5,,,,,,,,439.415,439.531,439.531,441.531,block1,j,1,0,14,14,14,1,1,bottom_right,friendly,neutral,0.758,,,,,,,,,,,,,,,,,
,,,,,370533,m,y,r,n,13,0,2025-04-05_22h21.26.349,VisualSearchFaces,2024.2.4,MacIntel,62.5,,,,,,,,442.532,442.631,442.631,444.631,block1,j,1,0,15,15,19,1,1,bottom_right,threatening,neutral,0.551,,,,,,,,,,,,,,,,,
,,,,,370533,m,y,r,n,13,0,2025-04-05_22h21.26.349,VisualSearchFaces,2024.2.4,MacIntel,62.5,,,,,,,,445.632,445.732,445.732,447.731,block1,f,1,0,16,16,27,1,0,top_right,neutral,no_target,0.466,,,,,,,,,,,,,,,,,
,,,,,370533,m,y,r,n,13,0,2025-04-05_22h21.26.349,VisualSearchFaces,2024.2.4,MacIntel,62.5,,,,,,,,448.732,448.848,448.848,450.848,block1,j,1,0,17,17,9,1,1,bottom_right,neutral,threatening,0.517,,,,,,,,,,,,,,,,,
,,,,,370533,m,y,r,n,13,0,2025-04-05_22h21.26.349,VisualSearchFaces,2024.2.4,MacIntel,62.5,,,,,,,,451.848,451.964,451.964,453.964,block1,f,1,0,18,18,26,1,0,top_left,neutral,no_target,0.469,,,,,,,,,,,,,,,,,
,,,,,370533,m,y,r,n,13,0,2025-04-05_22h21.26.349,VisualSearchFaces,2024.2.4,MacIntel,62.5,,,,,,,,454.965,455.065,455.065,457.064,block1,f,1,0,19,19,36,1,0,top_left,threatening,no_target,0.558,,,,,,,,,,,,,,,,,
,,,,,370533,m,y,r,n,13,0,2025-04-05_22h21.26.349,VisualSearchFaces,2024.2.4,MacIntel,62.5,,,,,,,,458.065,458.181,458.181,460.181,block1,j,1,0,20,20,7,1,1,top_right,neutral,threatening,0.659,,,,,,,,,,,,,,,,,
,,,,,370533,m,y,r,n,13,0,2025-04-05_22h21.26.349,VisualSearchFaces,2024.2.4,MacIntel,62.5,,,,,,,,461.182,461.281,461.281,463.281,block1,f,1,0,21,21,33,1,0,bottom_left,friendly,no_target,0.543,,,,,,,,,,,,,,,,,
,,,,,370533,m,y,r,n,13,0,2025-04-05_22h21.26.349,VisualSearchFaces,2024.2.4,MacIntel,62.5,,,,,,,,464.282,464.381,464.381,466.381,block1,f,1,0,22,22,30,1,0,centre,friendly,no_target,0.458,,,,,,,,,,,,,,,,,
,,,,,370533,m,y,r,n,13,0,2025-04-05_22h21.26.349,VisualSearchFaces,2024.2.4,MacIntel,62.5,,,,,,,,467.381,467.481,467.481,469.481,block1,f,1,0,23,23,31,1,0,top_left,friendly,no_target,0.556,,,,,,,,,,,,,,,,,
,,,,,370533,m,y,r,n,13,0,2025-04-05_22h21.26.349,VisualSearchFaces,2024.2.4,MacIntel,62.5,,,,,,,,470.482,470.598,470.598,472.597,block1,f,1,0,24,24,28,1,0,bottom_left,neutral,no_target,0.501,,,,,,,,,,,,,,,,,
,,,,,370533,m,y,r,n,13,0,2025-04-05_22h21.26.349,VisualSearchFaces,2024.2.4,MacIntel,62.5,,,,,,,,473.598,473.714,473.714,475.713,block1,j,1,0,25,25,3,1,1,bottom_left,neutral,friendly,0.446,,,,,,,,,,,,,,,,,
,,,,,370533,m,y,r,n,13,0,2025-04-05_22h21.26.349,VisualSearchFaces,2024.2.4,MacIntel,62.5,,,,,,,,476.715,476.831,476.831,478.831,block1,f,1,0,26,26,23,1,0,bottom_left,neutral,no_target,0.601,,,,,,,,,,,,,,,,,
,,,,,370533,m,y,r,n,13,0,2025-04-05_22h21.26.349,VisualSearchFaces,2024.2.4,MacIntel,62.5,,,,,,,,479.832,479.931,479.931,481.931,block1,f,1,0,27,27,39,1,0,bottom_right,threatening,no_target,0.656,,,,,,,,,,,,,,,,,
,,,,,370533,m,y,r,n,13,0,2025-04-05_22h21.26.349,VisualSearchFaces,2024.2.4,MacIntel,62.5,,,,,,,,482.932,483.031,483.031,485.031,block1,f,0,0,28,28,11,1,1,top_left,friendly,neutral,0.451,,,,,,,,,,,,,,,,,
,,,,,370533,m,y,r,n,13,0,2025-04-05_22h21.26.349,VisualSearchFaces,2024.2.4,MacIntel,62.5,,,,,,,,486.032,486.131,486.131,488.131,block1,j,1,0,29,29,18,1,1,bottom_left,threatening,neutral,0.466,,,,,,,,,,,,,,,,,
,,,,,370533,m,y,r,n,13,0,2025-04-05_22h21.26.349,VisualSearchFaces,2024.2.4,MacIntel,62.5,,,,,,,,489.132,489.248,489.248,491.247,block1,f,1,0,30,30,38,1,0,bottom_left,threatening,no_target,0.413,,,,,,,,,,,,,,,,,
,,,,,370533,m,y,r,n,13,0,2025-04-05_22h21.26.349,VisualSearchFaces,2024.2.4,MacIntel,62.5,,,,,,,,492.248,492.364,492.364,494.364,block1,j,1,0,31,31,5,1,1,centre,neutral,threatening,0.471,,,,,,,,,,,,,,,,,
,,,,,370533,m,y,r,n,13,0,2025-04-05_22h21.26.349,VisualSearchFaces,2024.2.4,MacIntel,62.5,,,,,,,,495.365,495.464,495.464,497.464,block1,j,1,0,32,32,4,1,1,bottom_right,neutral,friendly,0.484,,,,,,,,,,,,,,,,,
,,,,,370533,m,y,r,n,13,0,2025-04-05_22h21.26.349,VisualSearchFaces,2024.2.4,MacIntel,62.5,,,,,,,,498.465,498.564,498.564,500.564,block1,j,1,0,33,33,2,1,1,top_right,neutral,friendly,0.506,,,,,,,,,,,,,,,,,
,,,,,370533,m,y,r,n,13,0,2025-04-05_22h21.26.349,VisualSearchFaces,2024.2.4,MacIntel,62.5,,,,,,,,501.565,501.664,501.664,503.664,block1,f,1,0,34,34,37,1,0,top_right,threatening,no_target,0.501,,,,,,,,,,,,,,,,,
,,,,,370533,m,y,r,n,13,0,2025-04-05_22h21.26.349,VisualSearchFaces,2024.2.4,MacIntel,62.5,,,,,,,,504.665,504.781,504.781,506.781,block1,f,0,0,35,35,16,1,1,top_left,threatening,neutral,0.486,,,,,,,,,,,,,,,,,
,,,,,370533,m,y,r,n,13,0,2025-04-05_22h21.26.349,VisualSearchFaces,2024.2.4,MacIntel,62.5,,,,,,,,507.781,507.881,507.881,509.881,block1,j,1,0,36,36,12,1,1,top_right,friendly,neutral,0.401,,,,,,,,,,,,,,,,,
,,,,,370533,m,y,r,n,13,0,2025-04-05_22h21.26.349,VisualSearchFaces,2024.2.4,MacIntel,62.5,,,,,,,,510.881,510.998,510.998,512.997,block1,f,1,0,37,37,29,1,0,bottom_right,neutral,no_target,1.216,,,,,,,,,,,,,,,,,
,,,,,370533,m,y,r,n,13,0,2025-04-05_22h21.26.349,VisualSearchFaces,2024.2.4,MacIntel,62.5,,,,,,,,513.998,514.097,514.097,516.097,block1,j,1,0,38,38,1,1,1,top_left,neutral,friendly,0.635,,,,,,,,,,,,,,,,,
,,,,,370533,m,y,r,n,13,0,2025-04-05_22h21.26.349,VisualSearchFaces,2024.2.4,MacIntel,62.5,,,,,,,,517.097,517.214,517.214,519.214,block1,f,0,0,39,39,15,1,1,centre,threatening,neutral,0.618,,,,,,,,,,,,,,,,,
,,,,,370533,m,y,r,n,13,0,2025-04-05_22h21.26.349,VisualSearchFaces,2024.2.4,MacIntel,62.5,,,,,,,,520.215,520.314,520.314,522.314,block1,j,1,1,0,40,5,1,1,centre,neutral,threatening,0.586,,,,,,,,,,,,,,,,,
,,,,,370533,m,y,r,n,13,0,2025-04-05_22h21.26.349,VisualSearchFaces,2024.2.4,MacIntel,62.5,,,,,,,,523.315,523.414,523.414,525.413,block1,j,1,1,1,41,11,1,1,top_left,friendly,neutral,0.626,,,,,,,,,,,,,,,,,
,,,,,370533,m,y,r,n,13,0,2025-04-05_22h21.26.349,VisualSearchFaces,2024.2.4,MacIntel,62.5,,,,,,,,526.415,526.531,526.531,528.53,block1,f,1,1,2,42,32,1,0,top_right,friendly,no_target,0.512,,,,,,,,,,,,,,,,,
,,,,,370533,m,y,r,n,13,0,2025-04-05_22h21.26.349,VisualSearchFaces,2024.2.4,MacIntel,62.5,,,,,,,,529.531,529.647,529.648,531.647,block1,j,1,1,3,43,19,1,1,bottom_right,threatening,neutral,0.607,,,,,,,,,,,,,,,,,
,,,,,370533,m,y,r,n,13,0,2025-04-05_22h21.26.349,VisualSearchFaces,2024.2.4,MacIntel,62.5,,,,,,,,532.648,532.748,532.748,534.747,block1,j,1,1,4,44,12,1,1,top_right,friendly,neutral,0.494,,,,,,,,,,,,,,,,,
,,,,,370533,m,y,r,n,13,0,2025-04-05_22h21.26.349,VisualSearchFaces,2024.2.4,MacIntel,62.5,,,,,,,,535.748,535.847,535.847,537.847,block1,j,1,1,5,45,0,1,1,centre,neutral,friendly,0.642,,,,,,,,,,,,,,,,,
,,,,,370533,m,y,r,n,13,0,2025-04-05_22h21.26.349,VisualSearchFaces,2024.2.4,MacIntel,62.5,,,,,,,,538.847,538.947,538.947,540.947,block1,j,1,1,6,46,16,1,1,top_left,threatening,neutral,0.558,,,,,,,,,,,,,,,,,
,,,,,370533,m,y,r,n,13,0,2025-04-05_22h21.26.349,VisualSearchFaces,2024.2.4,MacIntel,62.5,,,,,,,,541.947,542.047,542.047,544.047,block1,j,1,1,7,47,10,1,1,centre,friendly,neutral,0.437,,,,,,,,,,,,,,,,,
,,,,,370533,m,y,r,n,13,0,2025-04-05_22h21.26.349,VisualSearchFaces,2024.2.4,MacIntel,62.5,,,,,,,,545.048,545.147,545.147,547.147,block1,f,1,1,8,48,20,1,0,centre,neutral,no_target,0.627,,,,,,,,,,,,,,,,,
,,,,,370533,m,y,r,n,13,0,2025-04-05_22h21.26.349,VisualSearchFaces,2024.2.4,MacIntel,62.5,,,,,,,,548.148,548.264,548.264,550.264,block1,j,1,1,9,49,17,1,1,top_right,threatening,neutral,0.717,,,,,,,,,,,,,,,,,
,,,,,370533,m,y,r,n,13,0,2025-04-05_22h21.26.349,VisualSearchFaces,2024.2.4,MacIntel,62.5,,,,,,,,551.265,551.38,551.381,553.38,block1,f,1,1,10,50,22,1,0,top_right,neutral,no_target,0.569,,,,,,,,,,,,,,,,,
,,,,,370533,m,y,r,n,13,0,2025-04-05_22h21.26.349,VisualSearchFaces,2024.2.4,MacIntel,62.5,,,,,,,,554.381,554.497,554.497,556.497,block1,f,1,1,11,51,33,1,0,bottom_left,friendly,no_target,0.468,,,,,,,,,,,,,,,,,
,,,,,370533,m,y,r,n,13,0,2025-04-05_22h21.26.349,VisualSearchFaces,2024.2.4,MacIntel,62.5,,,,,,,,557.498,557.597,557.597,559.597,block1,f,1,1,12,52,24,1,0,bottom_right,neutral,no_target,0.484,,,,,,,,,,,,,,,,,
,,,,,370533,m,y,r,n,13,0,2025-04-05_22h21.26.349,VisualSearchFaces,2024.2.4,MacIntel,62.5,,,,,,,,560.598,560.697,560.697,562.697,block1,f,1,1,13,53,34,1,0,bottom_right,friendly,no_target,0.591,,,,,,,,,,,,,,,,,
,,,,,370533,m,y,r,n,13,0,2025-04-05_22h21.26.349,VisualSearchFaces,2024.2.4,MacIntel,62.5,,,,,,,,563.697,563.797,563.797,565.797,block1,j,1,1,14,54,1,1,1,top_left,neutral,friendly,0.55,,,,,,,,,,,,,,,,,
,,,,,370533,m,y,r,n,13,0,2025-04-05_22h21.26.349,VisualSearchFaces,2024.2.4,MacIntel,62.5,,,,,,,,566.798,566.897,566.897,568.897,block1,f,1,1,15,55,30,1,0,centre,friendly,no_target,0.452,,,,,,,,,,,,,,,,,
,,,,,370533,m,y,r,n,13,0,2025-04-05_22h21.26.349,VisualSearchFaces,2024.2.4,MacIntel,62.5,,,,,,,,569.898,569.997,569.997,571.997,block1,f,1,1,16,56,35,1,0,centre,threatening,no_target,0.577,,,,,,,,,,,,,,,,,
,,,,,370533,m,y,r,n,13,0,2025-04-05_22h21.26.349,VisualSearchFaces,2024.2.4,MacIntel,62.5,,,,,,,,572.997,573.097,573.097,575.096,block1,f,1,1,17,57,26,1,0,top_left,neutral,no_target,0.588,,,,,,,,,,,,,,,,,
,,,,,370533,m,y,r,n,13,0,2025-04-05_22h21.26.349,VisualSearchFaces,2024.2.4,MacIntel,62.5,,,,,,,,576.098,576.214,576.214,578.214,block1,j,1,1,18,58,15,1,1,centre,threatening,neutral,0.551,,,,,,,,,,,,,,,,,
,,,,,370533,m,y,r,n,13,0,2025-04-05_22h21.26.349,VisualSearchFaces,2024.2.4,MacIntel,62.5,,,,,,,,579.214,579.314,579.314,581.313,block1,f,1,1,19,59,28,1,0,bottom_left,neutral,no_target,0.593,,,,,,,,,,,,,,,,,
,,,,,370533,m,y,r,n,13,0,2025-04-05_22h21.26.349,VisualSearchFaces,2024.2.4,MacIntel,62.5,,,,,,,,582.314,582.43,582.43,584.43,block1,j,1,1,20,60,7,1,1,top_right,neutral,threatening,0.935,,,,,,,,,,,,,,,,,
,,,,,370533,m,y,r,n,13,0,2025-04-05_22h21.26.349,VisualSearchFaces,2024.2.4,MacIntel,62.5,,,,,,,,585.431,585.53,585.53,587.53,block1,j,1,1,21,61,4,1,1,bottom_right,neutral,friendly,0.624,,,,,,,,,,,,,,,,,
,,,,,370533,m,y,r,n,13,0,2025-04-05_22h21.26.349,VisualSearchFaces,2024.2.4,MacIntel,62.5,,,,,,,,588.531,588.63,588.63,590.63,block1,f,1,1,22,62,38,1,0,bottom_left,threatening,no_target,0.518,,,,,,,,,,,,,,,,,
,,,,,370533,m,y,r,n,13,0,2025-04-05_22h21.26.349,VisualSearchFaces,2024.2.4,MacIntel,62.5,,,,,,,,591.631,591.747,591.747,593.747,block1,j,1,1,23,63,8,1,1,bottom_left,neutral,threatening,0.433,,,,,,,,,,,,,,,,,
,,,,,370533,m,y,r,n,13,0,2025-04-05_22h21.26.349,VisualSearchFaces,2024.2.4,MacIntel,62.5,,,,,,,,594.748,594.847,594.847,596.847,block1,f,1,1,24,64,29,1,0,bottom_right,neutral,no_target,0.501,,,,,,,,,,,,,,,,,
,,,,,370533,m,y,r,n,13,0,2025-04-05_22h21.26.349,VisualSearchFaces,2024.2.4,MacIntel,62.5,,,,,,,,597.847,597.947,597.947,599.947,block1,f,1,1,25,65,21,1,0,top_left,neutral,no_target,0.451,,,,,,,,,,,,,,,,,
,,,,,370533,m,y,r,n,13,0,2025-04-05_22h21.26.349,VisualSearchFaces,2024.2.4,MacIntel,62.5,,,,,,,,600.947,601.063,601.063,603.063,block1,f,1,1,26,66,27,1,0,top_right,neutral,no_target,0.41,,,,,,,,,,,,,,,,,
,,,,,370533,m,y,r,n,13,0,2025-04-05_22h21.26.349,VisualSearchFaces,2024.2.4,MacIntel,62.5,,,,,,,,604.064,604.18,604.18,606.18,block1,j,1,1,27,67,2,1,1,top_right,neutral,friendly,0.484,,,,,,,,,,,,,,,,,
,,,,,370533,m,y,r,n,13,0,2025-04-05_22h21.26.349,VisualSearchFaces,2024.2.4,MacIntel,62.5,,,,,,,,607.181,607.28,607.28,609.28,block1,f,1,1,28,68,25,1,0,centre,neutral,no_target,0.428,,,,,,,,,,,,,,,,,
,,,,,370533,m,y,r,n,13,0,2025-04-05_22h21.26.349,VisualSearchFaces,2024.2.4,MacIntel,62.5,,,,,,,,610.281,610.38,610.38,612.38,block1,j,1,1,29,69,6,1,1,top_left,neutral,threatening,0.451,,,,,,,,,,,,,,,,,
,,,,,370533,m,y,r,n,13,0,2025-04-05_22h21.26.349,VisualSearchFaces,2024.2.4,MacIntel,62.5,,,,,,,,613.381,613.497,613.497,615.497,block1,f,1,1,30,70,31,1,0,top_left,friendly,no_target,0.509,,,,,,,,,,,,,,,,,
,,,,,370533,m,y,r,n,13,0,2025-04-05_22h21.26.349,VisualSearchFaces,2024.2.4,MacIntel,62.5,,,,,,,,616.497,616.613,616.614,618.613,block1,f,1,1,31,71,39,1,0,bottom_right,threatening,no_target,0.443,,,,,,,,,,,,,,,,,
,,,,,370533,m,y,r,n,13,0,2025-04-05_22h21.26.349,VisualSearchFaces,2024.2.4,MacIntel,62.5,,,,,,,,619.614,619.714,619.714,621.713,block1,j,1,1,32,72,14,1,1,bottom_right,friendly,neutral,0.474,,,,,,,,,,,,,,,,,
,,,,,370533,m,y,r,n,13,0,2025-04-05_22h21.26.349,VisualSearchFaces,2024.2.4,MacIntel,62.5,,,,,,,,622.713,622.813,622.813,624.813,block1,j,1,1,33,73,3,1,1,bottom_left,neutral,friendly,0.468,,,,,,,,,,,,,,,,,
,,,,,370533,m,y,r,n,13,0,2025-04-05_22h21.26.349,VisualSearchFaces,2024.2.4,MacIntel,62.5,,,,,,,,625.814,625.93,625.93,627.93,block1,f,1,1,34,74,23,1,0,bottom_left,neutral,no_target,0.484,,,,,,,,,,,,,,,,,
,,,,,370533,m,y,r,n,13,0,2025-04-05_22h21.26.349,VisualSearchFaces,2024.2.4,MacIntel,62.5,,,,,,,,628.93,629.03,629.03,631.03,block1,f,1,1,35,75,36,1,0,top_left,threatening,no_target,0.476,,,,,,,,,,,,,,,,,
,,,,,370533,m,y,r,n,13,0,2025-04-05_22h21.26.349,VisualSearchFaces,2024.2.4,MacIntel,62.5,,,,,,,,632.031,632.13,632.13,634.13,block1,j,1,1,36,76,18,1,1,bottom_left,threatening,neutral,0.468,,,,,,,,,,,,,,,,,
,,,,,370533,m,y,r,n,13,0,2025-04-05_22h21.26.349,VisualSearchFaces,2024.2.4,MacIntel,62.5,,,,,,,,635.131,635.247,635.247,637.246,block1,f,1,1,37,77,37,1,0,top_right,threatening,no_target,0.344,,,,,,,,,,,,,,,,,
,,,,,370533,m,y,r,n,13,0,2025-04-05_22h21.26.349,VisualSearchFaces,2024.2.4,MacIntel,62.5,,,,,,,,638.247,638.347,638.347,640.347,block1,j,1,1,38,78,9,1,1,bottom_right,neutral,threatening,0.942,,,,,,,,,,,,,,,,,
,,,,,370533,m,y,r,n,13,0,2025-04-05_22h21.26.349,VisualSearchFaces,2024.2.4,MacIntel,62.5,,,,,,,,641.347,641.463,641.463,643.463,block1,j,1,1,39,79,13,1,1,bottom_left,friendly,neutral,0.553,,,,,,,,,,,,,,,,,
,,,,,370533,m,y,r,n,13,0,2025-04-05_22h21.26.349,VisualSearchFaces,2024.2.4,MacIntel,62.5,,,724.613,727.509,space,2.864,,728.509,728.609,728.609,730.608,block2,j,0,0,0,0,38,1,0,bottom_left,threatening,no_target,0.825,,643.465,724.611,space,81.129,,,,,,,,,,,,
,,,,,370533,m,y,r,n,13,0,2025-04-05_22h21.26.349,VisualSearchFaces,2024.2.4,MacIntel,62.5,,,,,,,,731.61,731.725,731.725,733.725,block2,f,1,0,1,1,35,1,0,centre,threatening,no_target,0.47,,,,,,,,,,,,,,,,,
,,,,,370533,m,y,r,n,13,0,2025-04-05_22h21.26.349,VisualSearchFaces,2024.2.4,MacIntel,62.5,,,,,,,,734.726,734.825,734.825,736.825,block2,j,1,0,2,2,0,1,1,centre,neutral,friendly,0.877,,,,,,,,,,,,,,,,,
,,,,,370533,m,y,r,n,13,0,2025-04-05_22h21.26.349,VisualSearchFaces,2024.2.4,MacIntel,62.5,,,,,,,,737.825,737.942,737.942,739.942,block2,f,1,0,3,3,34,1,0,bottom_right,friendly,no_target,0.564,,,,,,,,,,,,,,,,,
,,,,,370533,m,y,r,n,13,0,2025-04-05_22h21.26.349,VisualSearchFaces,2024.2.4,MacIntel,62.5,,,,,,,,740.942,741.041,741.041,743.041,block2,f,1,0,4,4,29,1,0,bottom_right,neutral,no_target,0.44,,,,,,,,,,,,,,,,,
,,,,,370533,m,y,r,n,13,0,2025-04-05_22h21.26.349,VisualSearchFaces,2024.2.4,MacIntel,62.5,,,,,,,,744.042,744.142,744.142,746.142,block2,f,1,0,5,5,22,1,0,top_right,neutral,no_target,0.369,,,,,,,,,,,,,,,,,
,,,,,370533,m,y,r,n,13,0,2025-04-05_22h21.26.349,VisualSearchFaces,2024.2.4,MacIntel,62.5,,,,,,,,747.143,747.258,747.258,749.258,block2,j,1,0,6,6,8,1,1,bottom_left,neutral,threatening,0.502,,,,,,,,,,,,,,,,,
,,,,,370533,m,y,r,n,13,0,2025-04-05_22h21.26.349,VisualSearchFaces,2024.2.4,MacIntel,62.5,,,,,,,,750.258,750.358,750.358,752.358,block2,j,1,0,7,7,15,1,1,centre,threatening,neutral,0.59,,,,,,,,,,,,,,,,,
,,,,,370533,m,y,r,n,13,0,2025-04-05_22h21.26.349,VisualSearchFaces,2024.2.4,MacIntel,62.5,,,,,,,,753.359,753.458,753.458,755.458,block2,j,1,0,8,8,7,1,1,top_right,neutral,threatening,0.622,,,,,,,,,,,,,,,,,
,,,,,370533,m,y,r,n,13,0,2025-04-05_22h21.26.349,VisualSearchFaces,2024.2.4,MacIntel,62.5,,,,,,,,756.459,756.558,756.558,758.558,block2,j,1,0,9,9,11,1,1,top_left,friendly,neutral,0.702,,,,,,,,,,,,,,,,,
,,,,,370533,m,y,r,n,13,0,2025-04-05_22h21.26.349,VisualSearchFaces,2024.2.4,MacIntel,62.5,,,,,,,,759.559,759.675,759.675,761.675,block2,j,1,0,10,10,2,1,1,top_right,neutral,friendly,0.419,,,,,,,,,,,,,,,,,
,,,,,370533,m,y,r,n,13,0,2025-04-05_22h21.26.349,VisualSearchFaces,2024.2.4,MacIntel,62.5,,,,,,,,762.676,762.792,762.792,764.791,block2,j,1,0,11,11,4,1,1,bottom_right,neutral,friendly,0.516,,,,,,,,,,,,,,,,,
,,,,,370533,m,y,r,n,13,0,2025-04-05_22h21.26.349,VisualSearchFaces,2024.2.4,MacIntel,62.5,,,,,,,,765.792,765.892,765.892,767.891,block2,j,1,0,12,12,13,1,1,bottom_left,friendly,neutral,0.594,,,,,,,,,,,,,,,,,
,,,,,370533,m,y,r,n,13,0,2025-04-05_22h21.26.349,VisualSearchFaces,2024.2.4,MacIntel,62.5,,,,,,,,768.892,768.992,768.992,770.991,block2,f,1,0,13,13,37,1,0,top_right,threatening,no_target,0.401,,,,,,,,,,,,,,,,,
,,,,,370533,m,y,r,n,13,0,2025-04-05_22h21.26.349,VisualSearchFaces,2024.2.4,MacIntel,62.5,,,,,,,,771.992,772.108,772.108,774.108,block2,f,1,0,14,14,21,1,0,top_left,neutral,no_target,0.591,,,,,,,,,,,,,,,,,
,,,,,370533,m,y,r,n,13,0,2025-04-05_22h21.26.349,VisualSearchFaces,2024.2.4,MacIntel,62.5,,,,,,,,775.109,775.208,775.208,777.208,block2,j,1,0,15,15,3,1,1,bottom_left,neutral,friendly,0.5,,,,,,,,,,,,,,,,,
,,,,,370533,m,y,r,n,13,0,2025-04-05_22h21.26.349,VisualSearchFaces,2024.2.4,MacIntel,62.5,,,,,,,,778.209,778.308,778.308,780.308,block2,f,1,0,16,16,27,1,0,top_right,neutral,no_target,0.625,,,,,,,,,,,,,,,,,
,,,,,370533,m,y,r,n,13,0,2025-04-05_22h21.26.349,VisualSearchFaces,2024.2.4,MacIntel,62.5,,,,,,,,781.309,781.425,781.425,783.425,block2,j,1,0,17,17,19,1,1,bottom_right,threatening,neutral,0.491,,,,,,,,,,,,,,,,,
,,,,,370533,m,y,r,n,13,0,2025-04-05_22h21.26.349,VisualSearchFaces,2024.2.4,MacIntel,62.5,,,,,,,,784.425,784.541,784.541,786.541,block2,f,0,0,18,18,10,1,1,centre,friendly,neutral,0.783,,,,,,,,,,,,,,,,,
,,,,,370533,m,y,r,n,13,0,2025-04-05_22h21.26.349,VisualSearchFaces,2024.2.4,MacIntel,62.5,,,,,,,,787.542,787.642,787.642,789.641,block2,f,1,0,19,19,25,1,0,centre,neutral,no_target,0.919,,,,,,,,,,,,,,,,,
,,,,,370533,m,y,r,n,13,0,2025-04-05_22h21.26.349,VisualSearchFaces,2024.2.4,MacIntel,62.5,,,,,,,,790.641,790.741,790.741,792.741,block2,j,1,0,20,20,6,1,1,top_left,neutral,threatening,0.484,,,,,,,,,,,,,,,,,
,,,,,370533,m,y,r,n,13,0,2025-04-05_22h21.26.349,VisualSearchFaces,2024.2.4,MacIntel,62.5,,,,,,,,793.742,793.858,793.858,795.858,block2,f,1,0,21,21,24,1,0,bottom_right,neutral,no_target,0.618,,,,,,,,,,,,,,,,,
,,,,,370533,m,y,r,n,13,0,2025-04-05_22h21.26.349,VisualSearchFaces,2024.2.4,MacIntel,62.5,,,,,,,,796.858,796.958,796.958,798.958,block2,f,1,0,22,22,23,1,0,bottom_left,neutral,no_target,0.484,,,,,,,,,,,,,,,,,
,,,,,370533,m,y,r,n,13,0,2025-04-05_22h21.26.349,VisualSearchFaces,2024.2.4,MacIntel,62.5,,,,,,,,799.958,800.058,800.058,802.058,block2,f,1,0,23,23,32,1,0,top_right,friendly,no_target,0.474,,,,,,,,,,,,,,,,,
,,,,,370533,m,y,r,n,13,0,2025-04-05_22h21.26.349,VisualSearchFaces,2024.2.4,MacIntel,62.5,,,,,,,,803.059,803.174,803.175,805.174,block2,j,1,0,24,24,14,1,1,bottom_right,friendly,neutral,0.49,,,,,,,,,,,,,,,,,
,,,,,370533,m,y,r,n,13,0,2025-04-05_22h21.26.349,VisualSearchFaces,2024.2.4,MacIntel,62.5,,,,,,,,806.175,806.275,806.275,808.275,block2,f,1,0,25,25,30,1,0,centre,friendly,no_target,0.509,,,,,,,,,,,,,,,,,
,,,,,370533,m,y,r,n,13,0,2025-04-05_22h21.26.349,VisualSearchFaces,2024.2.4,MacIntel,62.5,,,,,,,,809.275,809.391,809.391,811.391,block2,j,1,0,26,26,5,1,1,centre,neutral,threatening,0.475,,,,,,,,,,,,,,,,,
,,,,,370533,m,y,r,n,13,0,2025-04-05_22h21.26.349,VisualSearchFaces,2024.2.4,MacIntel,62.5,,,,,,,,812.392,812.491,812.491,814.491,block2,j,1,0,27,27,9,1,1,bottom_right,neutral,threatening,0.46,,,,,,,,,,,,,,,,,
,,,,,370533,m,y,r,n,13,0,2025-04-05_22h21.26.349,VisualSearchFaces,2024.2.4,MacIntel,62.5,,,,,,,,815.492,815.591,815.591,817.591,block2,j,1,0,28,28,16,1,1,top_left,threatening,neutral,0.502,,,,,,,,,,,,,,,,,
,,,,,370533,m,y,r,n,13,0,2025-04-05_22h21.26.349,VisualSearchFaces,2024.2.4,MacIntel,62.5,,,,,,,,818.592,818.708,818.708,820.708,block2,f,1,0,29,29,33,1,0,bottom_left,friendly,no_target,0.373,,,,,,,,,,,,,,,,,
,,,,,370533,m,y,r,n,13,0,2025-04-05_22h21.26.349,VisualSearchFaces,2024.2.4,MacIntel,62.5,,,,,,,,821.708,821.825,821.825,823.824,block2,f,1,0,30,30,28,1,0,bottom_left,neutral,no_target,0.901,,,,,,,,,,,,,,,,,
,,,,,370533,m,y,r,n,13,0,2025-04-05_22h21.26.349,VisualSearchFaces,2024.2.4,MacIntel,62.5,,,,,,,,824.825,824.924,824.925,826.924,block2,f,1,0,31,31,20,1,0,centre,neutral,no_target,0.569,,,,,,,,,,,,,,,,,
,,,,,370533,m,y,r,n,13,0,2025-04-05_22h21.26.349,VisualSearchFaces,2024.2.4,MacIntel,62.5,,,,,,,,827.925,828.024,828.024,830.024,block2,j,1,0,32,32,17,1,1,top_right,threatening,neutral,0.756,,,,,,,,,,,,,,,,,
,,,,,370533,m,y,r,n,13,0,2025-04-05_22h21.26.349,VisualSearchFaces,2024.2.4,MacIntel,62.5,,,,,,,,831.026,831.141,831.141,833.141,block2,f,1,0,33,33,39,1,0,bottom_right,threatening,no_target,0.552,,,,,,,,,,,,,,,,,
,,,,,370533,m,y,r,n,13,0,2025-04-05_22h21.26.349,VisualSearchFaces,2024.2.4,MacIntel,62.5,,,,,,,,834.142,834.241,834.241,836.241,block2,j,1,0,34,34,1,1,1,top_left,neutral,friendly,0.468,,,,,,,,,,,,,,,,,
,,,,,370533,m,y,r,n,13,0,2025-04-05_22h21.26.349,VisualSearchFaces,2024.2.4,MacIntel,62.5,,,,,,,,837.242,837.341,837.341,839.341,block2,f,1,0,35,35,36,1,0,top_left,threatening,no_target,0.451,,,,,,,,,,,,,,,,,
,,,,,370533,m,y,r,n,13,0,2025-04-05_22h21.26.349,VisualSearchFaces,2024.2.4,MacIntel,62.5,,,,,,,,840.342,840.458,840.458,842.458,block2,f,1,0,36,36,26,1,0,top_left,neutral,no_target,0.479,,,,,,,,,,,,,,,,,
,,,,,370533,m,y,r,n,13,0,2025-04-05_22h21.26.349,VisualSearchFaces,2024.2.4,MacIntel,62.5,,,,,,,,843.458,843.558,843.558,845.558,block2,j,0,0,37,37,31,1,0,top_left,friendly,no_target,0.524,,,,,,,,,,,,,,,,,
,,,,,370533,m,y,r,n,13,0,2025-04-05_22h21.26.349,VisualSearchFaces,2024.2.4,MacIntel,62.5,,,,,,,,846.558,846.674,846.674,848.674,block2,j,1,0,38,38,18,1,1,bottom_left,threatening,neutral,0.528,,,,,,,,,,,,,,,,,
,,,,,370533,m,y,r,n,13,0,2025-04-05_22h21.26.349,VisualSearchFaces,2024.2.4,MacIntel,62.5,,,,,,,,849.675,849.775,849.775,851.774,block2,j,1,0,39,39,12,1,1,top_right,friendly,neutral,0.567,,,,,,,,,,,,,,,,,
,,,,,370533,m,y,r,n,13,0,2025-04-05_22h21.26.349,VisualSearchFaces,2024.2.4,MacIntel,62.5,,,,,,,,852.775,852.891,852.891,854.891,block2,j,1,1,0,40,8,1,1,bottom_left,neutral,threatening,0.689,,,,,,,,,,,,,,,,,
,,,,,370533,m,y,r,n,13,0,2025-04-05_22h21.26.349,VisualSearchFaces,2024.2.4,MacIntel,62.5,,,,,,,,855.892,855.991,855.991,857.991,block2,f,1,1,1,41,20,1,0,centre,neutral,no_target,0.802,,,,,,,,,,,,,,,,,
,,,,,370533,m,y,r,n,13,0,2025-04-05_22h21.26.349,VisualSearchFaces,2024.2.4,MacIntel,62.5,,,,,,,,858.992,859.091,859.091,861.091,block2,j,1,1,2,42,15,1,1,centre,threatening,neutral,0.658,,,,,,,,,,,,,,,,,
,,,,,370533,m,y,r,n,13,0,2025-04-05_22h21.26.349,VisualSearchFaces,2024.2.4,MacIntel,62.5,,,,,,,,862.092,862.208,862.208,864.207,block2,j,1,1,3,43,16,1,1,top_left,threatening,neutral,0.543,,,,,,,,,,,,,,,,,
,,,,,370533,m,y,r,n,13,0,2025-04-05_22h21.26.349,VisualSearchFaces,2024.2.4,MacIntel,62.5,,,,,,,,865.208,865.324,865.324,867.324,block2,f,1,1,4,44,30,1,0,centre,friendly,no_target,0.718,,,,,,,,,,,,,,,,,
,,,,,370533,m,y,r,n,13,0,2025-04-05_22h21.26.349,VisualSearchFaces,2024.2.4,MacIntel,62.5,,,,,,,,868.324,868.424,868.424,870.424,block2,j,1,1,5,45,3,1,1,bottom_left,neutral,friendly,0.536,,,,,,,,,,,,,,,,,
,,,,,370533,m,y,r,n,13,0,2025-04-05_22h21.26.349,VisualSearchFaces,2024.2.4,MacIntel,62.5,,,,,,,,871.425,871.524,871.524,873.524,block2,f,1,1,6,46,21,1,0,top_left,neutral,no_target,0.875,,,,,,,,,,,,,,,,,
,,,,,370533,m,y,r,n,13,0,2025-04-05_22h21.26.349,VisualSearchFaces,2024.2.4,MacIntel,62.5,,,,,,,,874.525,874.641,874.641,876.641,block2,j,1,1,7,47,6,1,1,top_left,neutral,threatening,0.501,,,,,,,,,,,,,,,,,
,,,,,370533,m,y,r,n,13,0,2025-04-05_22h21.26.349,VisualSearchFaces,2024.2.4,MacIntel,62.5,,,,,,,,877.641,877.757,877.757,879.757,block2,f,1,1,8,48,39,1,0,bottom_right,threatening,no_target,0.571,,,,,,,,,,,,,,,,,
,,,,,370533,m,y,r,n,13,0,2025-04-05_22h21.26.349,VisualSearchFaces,2024.2.4,MacIntel,62.5,,,,,,,,880.758,880.874,880.874,882.874,block2,j,1,1,9,49,9,1,1,bottom_right,neutral,threatening,0.439,,,,,,,,,,,,,,,,,
,,,,,370533,m,y,r,n,13,0,2025-04-05_22h21.26.349,VisualSearchFaces,2024.2.4,MacIntel,62.5,,,,,,,,883.875,883.974,883.974,885.974,block2,f,1,1,10,50,24,1,0,bottom_right,neutral,no_target,0.546,,,,,,,,,,,,,,,,,
,,,,,370533,m,y,r,n,13,0,2025-04-05_22h21.26.349,VisualSearchFaces,2024.2.4,MacIntel,62.5,,,,,,,,886.975,887.074,887.074,889.074,block2,j,1,1,11,51,0,1,1,centre,neutral,friendly,0.433,,,,,,,,,,,,,,,,,
,,,,,370533,m,y,r,n,13,0,2025-04-05_22h21.26.349,VisualSearchFaces,2024.2.4,MacIntel,62.5,,,,,,,,890.075,890.174,890.174,892.174,block2,f,1,1,12,52,22,1,0,top_right,neutral,no_target,0.492,,,,,,,,,,,,,,,,,
,,,,,370533,m,y,r,n,13,0,2025-04-05_22h21.26.349,VisualSearchFaces,2024.2.4,MacIntel,62.5,,,,,,,,893.175,893.274,893.274,895.274,block2,j,1,1,13,53,14,1,1,bottom_right,friendly,neutral,0.468,,,,,,,,,,,,,,,,,
,,,,,370533,m,y,r,n,13,0,2025-04-05_22h21.26.349,VisualSearchFaces,2024.2.4,MacIntel,62.5,,,,,,,,896.275,896.391,896.391,898.391,block2,j,1,1,14,54,13,1,1,bottom_left,friendly,neutral,0.456,,,,,,,,,,,,,,,,,
,,,,,370533,m,y,r,n,13,0,2025-04-05_22h21.26.349,VisualSearchFaces,2024.2.4,MacIntel,62.5,,,,,,,,899.392,899.508,899.508,901.507,block2,f,1,1,15,55,29,1,0,bottom_right,neutral,no_target,0.451,,,,,,,,,,,,,,,,,
,,,,,370533,m,y,r,n,13,0,2025-04-05_22h21.26.349,VisualSearchFaces,2024.2.4,MacIntel,62.5,,,,,,,,902.508,902.607,902.607,904.607,block2,f,1,1,16,56,34,1,0,bottom_right,friendly,no_target,0.9,,,,,,,,,,,,,,,,,
,,,,,370533,m,y,r,n,13,0,2025-04-05_22h21.26.349,VisualSearchFaces,2024.2.4,MacIntel,62.5,,,,,,,,905.608,905.707,905.707,907.708,block2,j,1,1,17,57,7,1,1,top_right,neutral,threatening,0.645,,,,,,,,,,,,,,,,,
,,,,,370533,m,y,r,n,13,0,2025-04-05_22h21.26.349,VisualSearchFaces,2024.2.4,MacIntel,62.5,,,,,,,,908.708,908.824,908.824,910.824,block2,j,1,1,18,58,10,1,1,centre,friendly,neutral,0.667,,,,,,,,,,,,,,,,,
,,,,,370533,m,y,r,n,13,0,2025-04-05_22h21.26.349,VisualSearchFaces,2024.2.4,MacIntel,62.5,,,,,,,,911.825,911.924,911.924,913.923,block2,f,1,1,19,59,25,1,0,centre,neutral,no_target,0.608,,,,,,,,,,,,,,,,,
,,,,,370533,m,y,r,n,13,0,2025-04-05_22h21.26.349,VisualSearchFaces,2024.2.4,MacIntel,62.5,,,,,,,,914.924,915.04,915.04,917.041,block2,j,0,1,20,60,32,1,0,top_right,friendly,no_target,0.553,,,,,,,,,,,,,,,,,
,,,,,370533,m,y,r,n,13,0,2025-04-05_22h21.26.349,VisualSearchFaces,2024.2.4,MacIntel,62.5,,,,,,,,918.041,918.157,918.157,920.156,block2,f,1,1,21,61,38,1,0,bottom_left,threatening,no_target,0.6,,,,,,,,,,,,,,,,,
,,,,,370533,m,y,r,n,13,0,2025-04-05_22h21.26.349,VisualSearchFaces,2024.2.4,MacIntel,62.5,,,,,,,,921.158,921.257,921.257,923.257,block2,j,1,1,22,62,12,1,1,top_right,friendly,neutral,0.487,,,,,,,,,,,,,,,,,
,,,,,370533,m,y,r,n,13,0,2025-04-05_22h21.26.349,VisualSearchFaces,2024.2.4,MacIntel,62.5,,,,,,,,924.258,924.357,924.357,926.357,block2,j,1,1,23,63,19,1,1,bottom_right,threatening,neutral,0.552,,,,,,,,,,,,,,,,,
,,,,,370533,m,y,r,n,13,0,2025-04-05_22h21.26.349,VisualSearchFaces,2024.2.4,MacIntel,62.5,,,,,,,,927.357,927.457,927.457,929.457,block2,f,1,1,24,64,35,1,0,centre,threatening,no_target,0.425,,,,,,,,,,,,,,,,,
,,,,,370533,m,y,r,n,13,0,2025-04-05_22h21.26.349,VisualSearchFaces,2024.2.4,MacIntel,62.5,,,,,,,,930.458,930.574,930.574,932.574,block2,f,1,1,25,65,37,1,0,top_right,threatening,no_target,0.568,,,,,,,,,,,,,,,,,
,,,,,370533,m,y,r,n,13,0,2025-04-05_22h21.26.349,VisualSearchFaces,2024.2.4,MacIntel,62.5,,,,,,,,933.574,933.691,933.691,935.69,block2,f,1,1,26,66,28,1,0,bottom_left,neutral,no_target,0.484,,,,,,,,,,,,,,,,,
,,,,,370533,m,y,r,n,13,0,2025-04-05_22h21.26.349,VisualSearchFaces,2024.2.4,MacIntel,62.5,,,,,,,,936.69,936.79,936.79,938.79,block2,f,1,1,27,67,31,1,0,top_left,friendly,no_target,1.516,,,,,,,,,,,,,,,,,
,,,,,370533,m,y,r,n,13,0,2025-04-05_22h21.26.349,VisualSearchFaces,2024.2.4,MacIntel,62.5,,,,,,,,939.791,939.907,939.907,941.907,block2,j,1,1,28,68,1,1,1,top_left,neutral,friendly,0.545,,,,,,,,,,,,,,,,,
,,,,,370533,m,y,r,n,13,0,2025-04-05_22h21.26.349,VisualSearchFaces,2024.2.4,MacIntel,62.5,,,,,,,,942.908,943.007,943.007,945.007,block2,f,1,1,29,69,33,1,0,bottom_left,friendly,no_target,0.468,,,,,,,,,,,,,,,,,
,,,,,370533,m,y,r,n,13,0,2025-04-05_22h21.26.349,VisualSearchFaces,2024.2.4,MacIntel,62.5,,,,,,,,946.008,946.124,946.124,948.124,block2,j,1,1,30,70,4,1,1,bottom_right,neutral,friendly,0.473,,,,,,,,,,,,,,,,,
,,,,,370533,m,y,r,n,13,0,2025-04-05_22h21.26.349,VisualSearchFaces,2024.2.4,MacIntel,62.5,,,,,,,,949.124,949.24,949.24,951.24,block2,j,1,1,31,71,2,1,1,top_right,neutral,friendly,0.486,,,,,,,,,,,,,,,,,
,,,,,370533,m,y,r,n,13,0,2025-04-05_22h21.26.349,VisualSearchFaces,2024.2.4,MacIntel,62.5,,,,,,,,952.241,952.357,952.357,954.357,block2,j,1,1,32,72,18,1,1,bottom_left,threatening,neutral,0.636,,,,,,,,,,,,,,,,,
,,,,,370533,m,y,r,n,13,0,2025-04-05_22h21.26.349,VisualSearchFaces,2024.2.4,MacIntel,62.5,,,,,,,,955.357,955.474,955.474,957.474,block2,j,1,1,33,73,11,1,1,top_left,friendly,neutral,0.602,,,,,,,,,,,,,,,,,
,,,,,370533,m,y,r,n,13,0,2025-04-05_22h21.26.349,VisualSearchFaces,2024.2.4,MacIntel,62.5,,,,,,,,958.474,958.59,958.59,960.59,block2,f,1,1,34,74,23,1,0,bottom_left,neutral,no_target,0.508,,,,,,,,,,,,,,,,,
,,,,,370533,m,y,r,n,13,0,2025-04-05_22h21.26.349,VisualSearchFaces,2024.2.4,MacIntel,62.5,,,,,,,,961.591,961.69,961.69,963.69,block2,j,0,1,35,75,27,1,0,top_right,neutral,no_target,1.044,,,,,,,,,,,,,,,,,
,,,,,370533,m,y,r,n,13,0,2025-04-05_22h21.26.349,VisualSearchFaces,2024.2.4,MacIntel,62.5,,,,,,,,964.691,964.807,964.807,966.806,block2,j,1,1,36,76,5,1,1,centre,neutral,threatening,0.457,,,,,,,,,,,,,,,,,
,,,,,370533,m,y,r,n,13,0,2025-04-05_22h21.26.349,VisualSearchFaces,2024.2.4,MacIntel,62.5,,,,,,,,967.807,967.923,967.923,969.923,block2,f,1,1,37,77,26,1,0,top_left,neutral,no_target,0.418,,,,,,,,,,,,,,,,,
,,,,,370533,m,y,r,n,13,0,2025-04-05_22h21.26.349,VisualSearchFaces,2024.2.4,MacIntel,62.5,,,,,,,,970.924,971.04,971.04,973.04,block2,f,1,1,38,78,36,1,0,top_left,threatening,no_target,0.451,,,,,,,,,,,,,,,,,
,,,,,370533,m,y,r,n,13,0,2025-04-05_22h21.26.349,VisualSearchFaces,2024.2.4,MacIntel,62.5,,,,,,,,974.041,974.157,974.157,976.157,block2,j,1,1,39,79,17,1,1,top_right,threatening,neutral,0.41,,,,,,,,,,,,,,,,,
,,,,,370533,m,y,r,n,13,0,2025-04-05_22h21.26.349,VisualSearchFaces,2024.2.4,MacIntel,62.5,,,994.593,995.79,space,1.165,,996.791,996.907,996.907,998.906,block3,f,1,0,0,0,29,1,0,bottom_right,neutral,no_target,0.617,,976.158,994.591,space,18.416,,,,,,,,,,,,
,,,,,370533,m,y,r,n,13,0,2025-04-05_22h21.26.349,VisualSearchFaces,2024.2.4,MacIntel,62.5,,,,,,,,999.908,1000.023,1000.023,1002.023,block3,f,1,0,1,1,37,1,0,top_right,threatening,no_target,0.467,,,,,,,,,,,,,,,,,
,,,,,370533,m,y,r,n,13,0,2025-04-05_22h21.26.349,VisualSearchFaces,2024.2.4,MacIntel,62.5,,,,,,,,1003.024,1003.14,1003.14,1005.14,block3,j,1,0,2,2,9,1,1,bottom_right,neutral,threatening,0.473,,,,,,,,,,,,,,,,,
,,,,,370533,m,y,r,n,13,0,2025-04-05_22h21.26.349,VisualSearchFaces,2024.2.4,MacIntel,62.5,,,,,,,,1006.14,1006.24,1006.24,1008.24,block3,f,1,0,3,3,33,1,0,bottom_left,friendly,no_target,0.557,,,,,,,,,,,,,,,,,
,,,,,370533,m,y,r,n,13,0,2025-04-05_22h21.26.349,VisualSearchFaces,2024.2.4,MacIntel,62.5,,,,,,,,1009.241,1009.356,1009.356,1011.356,block3,f,1,0,4,4,25,1,0,centre,neutral,no_target,0.993,,,,,,,,,,,,,,,,,
,,,,,370533,m,y,r,n,13,0,2025-04-05_22h21.26.349,VisualSearchFaces,2024.2.4,MacIntel,62.5,,,,,,,,1012.357,1012.473,1012.473,1014.473,block3,j,1,0,5,5,18,1,1,bottom_left,threatening,neutral,0.593,,,,,,,,,,,,,,,,,
,,,,,370533,m,y,r,n,13,0,2025-04-05_22h21.26.349,VisualSearchFaces,2024.2.4,MacIntel,62.5,,,,,,,,1015.474,1015.59,1015.59,1017.59,block3,f,1,0,6,6,21,1,0,top_left,neutral,no_target,0.766,,,,,,,,,,,,,,,,,
,,,,,370533,m,y,r,n,13,0,2025-04-05_22h21.26.349,VisualSearchFaces,2024.2.4,MacIntel,62.5,,,,,,,,1018.591,1018.69,1018.69,1020.69,block3,j,1,0,7,7,3,1,1,bottom_left,neutral,friendly,0.567,,,,,,,,,,,,,,,,,
,,,,,370533,m,y,r,n,13,0,2025-04-05_22h21.26.349,VisualSearchFaces,2024.2.4,MacIntel,62.5,,,,,,,,1021.69,1021.807,1021.807,1023.807,block3,j,1,0,8,8,14,1,1,bottom_right,friendly,neutral,0.475,,,,,,,,,,,,,,,,,
,,,,,370533,m,y,r,n,13,0,2025-04-05_22h21.26.349,VisualSearchFaces,2024.2.4,MacIntel,62.5,,,,,,,,1024.807,1024.923,1024.923,1026.923,block3,j,1,0,9,9,1,1,1,top_left,neutral,friendly,0.53,,,,,,,,,,,,,,,,,
,,,,,370533,m,y,r,n,13,0,2025-04-05_22h21.26.349,VisualSearchFaces,2024.2.4,MacIntel,62.5,,,,,,,,1027.924,1028.04,1028.04,1030.039,block3,j,1,0,10,10,19,1,1,bottom_right,threatening,neutral,0.502,,,,,,,,,,,,,,,,,
,,,,,370533,m,y,r,n,13,0,2025-04-05_22h21.26.349,VisualSearchFaces,2024.2.4,MacIntel,62.5,,,,,,,,1031.041,1031.156,1031.156,1033.156,block3,f,1,0,11,11,31,1,0,top_left,friendly,no_target,0.556,,,,,,,,,,,,,,,,,
,,,,,370533,m,y,r,n,13,0,2025-04-05_22h21.26.349,VisualSearchFaces,2024.2.4,MacIntel,62.5,,,,,,,,1034.157,1034.273,1034.273,1036.273,block3,j,1,0,12,12,13,1,1,bottom_left,friendly,neutral,0.456,,,,,,,,,,,,,,,,,
,,,,,370533,m,y,r,n,13,0,2025-04-05_22h21.26.349,VisualSearchFaces,2024.2.4,MacIntel,62.5,,,,,,,,1037.274,1037.39,1037.39,1039.39,block3,f,1,0,13,13,35,1,0,centre,threatening,no_target,0.589,,,,,,,,,,,,,,,,,
,,,,,370533,m,y,r,n,13,0,2025-04-05_22h21.26.349,VisualSearchFaces,2024.2.4,MacIntel,62.5,,,,,,,,1040.391,1040.506,1040.506,1042.505,block3,j,1,0,14,14,10,1,1,centre,friendly,neutral,0.443,,,,,,,,,,,,,,,,,
,,,,,370533,m,y,r,n,13,0,2025-04-05_22h21.26.349,VisualSearchFaces,2024.2.4,MacIntel,62.5,,,,,,,,1043.507,1043.606,1043.606,1045.606,block3,f,1,0,15,15,28,1,0,bottom_left,neutral,no_target,0.586,,,,,,,,,,,,,,,,,
,,,,,370533,m,y,r,n,13,0,2025-04-05_22h21.26.349,VisualSearchFaces,2024.2.4,MacIntel,62.5,,,,,,,,1046.607,1046.723,1046.723,1048.723,block3,f,1,0,16,16,39,1,0,bottom_right,threatening,no_target,0.708,,,,,,,,,,,,,,,,,
,,,,,370533,m,y,r,n,13,0,2025-04-05_22h21.26.349,VisualSearchFaces,2024.2.4,MacIntel,62.5,,,,,,,,1049.724,1049.84,1049.84,1051.84,block3,j,1,0,17,17,6,1,1,top_left,neutral,threatening,0.438,,,,,,,,,,,,,,,,,
,,,,,370533,m,y,r,n,13,0,2025-04-05_22h21.26.349,VisualSearchFaces,2024.2.4,MacIntel,62.5,,,,,,,,1052.84,1052.956,1052.956,1054.956,block3,f,1,0,18,18,23,1,0,bottom_left,neutral,no_target,0.424,,,,,,,,,,,,,,,,,
,,,,,370533,m,y,r,n,13,0,2025-04-05_22h21.26.349,VisualSearchFaces,2024.2.4,MacIntel,62.5,,,,,,,,1055.957,1056.056,1056.057,1058.056,block3,f,1,0,19,19,32,1,0,top_right,friendly,no_target,0.458,,,,,,,,,,,,,,,,,
,,,,,370533,m,y,r,n,13,0,2025-04-05_22h21.26.349,VisualSearchFaces,2024.2.4,MacIntel,62.5,,,,,,,,1059.056,1059.173,1059.173,1061.173,block3,f,1,0,20,20,22,1,0,top_right,neutral,no_target,0.556,,,,,,,,,,,,,,,,,
,,,,,370533,m,y,r,n,13,0,2025-04-05_22h21.26.349,VisualSearchFaces,2024.2.4,MacIntel,62.5,,,,,,,,1062.174,1062.29,1062.29,1064.289,block3,j,1,0,21,21,2,1,1,top_right,neutral,friendly,0.426,,,,,,,,,,,,,,,,,
,,,,,370533,m,y,r,n,13,0,2025-04-05_22h21.26.349,VisualSearchFaces,2024.2.4,MacIntel,62.5,,,,,,,,1065.29,1065.406,1065.406,1067.406,block3,f,1,0,22,22,34,1,0,bottom_right,friendly,no_target,0.356,,,,,,,,,,,,,,,,,
,,,,,370533,m,y,r,n,13,0,2025-04-05_22h21.26.349,VisualSearchFaces,2024.2.4,MacIntel,62.5,,,,,,,,1068.407,1068.523,1068.523,1070.523,block3,f,1,0,23,23,38,1,0,bottom_left,threatening,no_target,0.368,,,,,,,,,,,,,,,,,
,,,,,370533,m,y,r,n,13,0,2025-04-05_22h21.26.349,VisualSearchFaces,2024.2.4,MacIntel,62.5,,,,,,,,1071.524,1071.64,1071.64,1073.639,block3,j,1,0,24,24,12,1,1,top_right,friendly,neutral,0.428,,,,,,,,,,,,,,,,,
,,,,,370533,m,y,r,n,13,0,2025-04-05_22h21.26.349,VisualSearchFaces,2024.2.4,MacIntel,62.5,,,,,,,,1074.641,1074.756,1074.756,1076.756,block3,j,1,0,25,25,17,1,1,top_right,threatening,neutral,0.417,,,,,,,,,,,,,,,,,
,,,,,370533,m,y,r,n,13,0,2025-04-05_22h21.26.349,VisualSearchFaces,2024.2.4,MacIntel,62.5,,,,,,,,1077.756,1077.856,1077.856,1079.856,block3,j,1,0,26,26,15,1,1,centre,threatening,neutral,0.367,,,,,,,,,,,,,,,,,
,,,,,370533,m,y,r,n,13,0,2025-04-05_22h21.26.349,VisualSearchFaces,2024.2.4,MacIntel,62.5,,,,,,,,1080.857,1080.973,1080.973,1082.973,block3,j,1,0,27,27,7,1,1,top_right,neutral,threatening,0.54,,,,,,,,,,,,,,,,,
,,,,,370533,m,y,r,n,13,0,2025-04-05_22h21.26.349,VisualSearchFaces,2024.2.4,MacIntel,62.5,,,,,,,,1083.973,1084.073,1084.073,1086.073,block3,j,1,0,28,28,5,1,1,centre,neutral,threatening,0.654,,,,,,,,,,,,,,,,,
,,,,,370533,m,y,r,n,13,0,2025-04-05_22h21.26.349,VisualSearchFaces,2024.2.4,MacIntel,62.5,,,,,,,,1087.073,1087.173,1087.173,1089.173,block3,j,1,0,29,29,0,1,1,centre,neutral,friendly,0.386,,,,,,,,,,,,,,,,,
,,,,,370533,m,y,r,n,13,0,2025-04-05_22h21.26.349,VisualSearchFaces,2024.2.4,MacIntel,62.5,,,,,,,,1090.172,1090.273,1090.273,1092.273,block3,f,1,0,30,30,30,1,0,centre,friendly,no_target,0.57,,,,,,,,,,,,,,,,,
,,,,,370533,m,y,r,n,13,0,2025-04-05_22h21.26.349,VisualSearchFaces,2024.2.4,MacIntel,62.5,,,,,,,,1093.273,1093.373,1093.373,1095.373,block3,f,1,0,31,31,24,1,0,bottom_right,neutral,no_target,0.523,,,,,,,,,,,,,,,,,
,,,,,370533,m,y,r,n,13,0,2025-04-05_22h21.26.349,VisualSearchFaces,2024.2.4,MacIntel,62.5,,,,,,,,1096.373,1096.489,1096.489,1098.489,block3,f,1,0,32,32,20,1,0,centre,neutral,no_target,0.401,,,,,,,,,,,,,,,,,
,,,,,370533,m,y,r,n,13,0,2025-04-05_22h21.26.349,VisualSearchFaces,2024.2.4,MacIntel,62.5,,,,,,,,1099.49,1099.606,1099.606,1101.606,block3,f,1,0,33,33,36,1,0,top_left,threatening,no_target,0.369,,,,,,,,,,,,,,,,,
,,,,,370533,m,y,r,n,13,0,2025-04-05_22h21.26.349,VisualSearchFaces,2024.2.4,MacIntel,62.5,,,,,,,,1102.606,1102.723,1102.723,1104.723,block3,f,1,0,34,34,26,1,0,top_left,neutral,no_target,0.536,,,,,,,,,,,,,,,,,
,,,,,370533,m,y,r,n,13,0,2025-04-05_22h21.26.349,VisualSearchFaces,2024.2.4,MacIntel,62.5,,,,,,,,1105.723,1105.839,1105.84,1107.839,block3,j,1,0,35,35,8,1,1,bottom_left,neutral,threatening,0.591,,,,,,,,,,,,,,,,,
,,,,,370533,m,y,r,n,13,0,2025-04-05_22h21.26.349,VisualSearchFaces,2024.2.4,MacIntel,62.5,,,,,,,,1108.84,1108.956,1108.956,1110.956,block3,j,1,0,36,36,4,1,1,bottom_right,neutral,friendly,0.533,,,,,,,,,,,,,,,,,
,,,,,370533,m,y,r,n,13,0,2025-04-05_22h21.26.349,VisualSearchFaces,2024.2.4,MacIntel,62.5,,,,,,,,1111.957,1112.056,1112.056,1114.056,block3,j,1,0,37,37,11,1,1,top_left,friendly,neutral,0.693,,,,,,,,,,,,,,,,,
,,,,,370533,m,y,r,n,13,0,2025-04-05_22h21.26.349,VisualSearchFaces,2024.2.4,MacIntel,62.5,,,,,,,,1115.057,1115.173,1115.173,1117.172,block3,j,1,0,38,38,16,1,1,top_left,threatening,neutral,0.584,,,,,,,,,,,,,,,,,
,,,,,370533,m,y,r,n,13,0,2025-04-05_22h21.26.349,VisualSearchFaces,2024.2.4,MacIntel,62.5,,,,,,,,1118.173,1118.289,1118.289,1120.289,block3,f,1,0,39,39,27,1,0,top_right,neutral,no_target,0.464,,,,,,,,,,,,,,,,,
,,,,,370533,m,y,r,n,13,0,2025-04-05_22h21.26.349,VisualSearchFaces,2024.2.4,MacIntel,62.5,,,,,,,,1121.29,1121.406,1121.406,1123.406,block3,f,1,1,0,40,28,1,0,bottom_left,neutral,no_target,0.583,,,,,,,,,,,,,,,,,
,,,,,370533,m,y,r,n,13,0,2025-04-05_22h21.26.349,VisualSearchFaces,2024.2.4,MacIntel,62.5,,,,,,,,1124.407,1124.523,1124.523,1126.522,block3,j,1,1,1,41,5,1,1,centre,neutral,threatening,0.463,,,,,,,,,,,,,,,,,
,,,,,370533,m,y,r,n,13,0,2025-04-05_22h21.26.349,VisualSearchFaces,2024.2.4,MacIntel,62.5,,,,,,,,1127.523,1127.622,1127.623,1129.622,block3,j,1,1,2,42,8,1,1,bottom_left,neutral,threatening,0.588,,,,,,,,,,,,,,,,,
,,,,,370533,m,y,r,n,13,0,2025-04-05_22h21.26.349,VisualSearchFaces,2024.2.4,MacIntel,62.5,,,,,,,,1130.623,1130.739,1130.739,1132.739,block3,f,1,1,3,43,25,1,0,centre,neutral,no_target,0.732,,,,,,,,,,,,,,,,,
,,,,,370533,m,y,r,n,13,0,2025-04-05_22h21.26.349,VisualSearchFaces,2024.2.4,MacIntel,62.5,,,,,,,,1133.74,1133.856,1133.856,1135.856,block3,j,1,1,4,44,6,1,1,top_left,neutral,threatening,0.501,,,,,,,,,,,,,,,,,
,,,,,370533,m,y,r,n,13,0,2025-04-05_22h21.26.349,VisualSearchFaces,2024.2.4,MacIntel,62.5,,,,,,,,1136.856,1136.972,1136.972,1138.972,block3,j,1,1,5,45,0,1,1,centre,neutral,friendly,0.685,,,,,,,,,,,,,,,,,
,,,,,370533,m,y,r,n,13,0,2025-04-05_22h21.26.349,VisualSearchFaces,2024.2.4,MacIntel,62.5,,,,,,,,1139.974,1140.089,1140.089,1142.089,block3,j,1,1,6,46,11,1,1,top_left,friendly,neutral,0.786,,,,,,,,,,,,,,,,,
,,,,,370533,m,y,r,n,13,0,2025-04-05_22h21.26.349,VisualSearchFaces,2024.2.4,MacIntel,62.5,,,,,,,,1143.089,1143.206,1143.206,1145.206,block3,f,1,1,7,47,23,1,0,bottom_left,neutral,no_target,0.485,,,,,,,,,,,,,,,,,
,,,,,370533,m,y,r,n,13,0,2025-04-05_22h21.26.349,VisualSearchFaces,2024.2.4,MacIntel,62.5,,,,,,,,1146.207,1146.322,1146.322,1148.322,block3,j,1,1,8,48,13,1,1,bottom_left,friendly,neutral,0.543,,,,,,,,,,,,,,,,,
,,,,,370533,m,y,r,n,13,0,2025-04-05_22h21.26.349,VisualSearchFaces,2024.2.4,MacIntel,62.5,,,,,,,,1149.323,1149.422,1149.422,1151.422,block3,j,1,1,9,49,9,1,1,bottom_right,neutral,threatening,0.486,,,,,,,,,,,,,,,,,
,,,,,370533,m,y,r,n,13,0,2025-04-05_22h21.26.349,VisualSearchFaces,2024.2.4,MacIntel,62.5,,,,,,,,1152.423,1152.539,1152.539,1154.538,block3,f,1,1,10,50,26,1,0,top_left,neutral,no_target,0.54,,,,,,,,,,,,,,,,,
,,,,,370533,m,y,r,n,13,0,2025-04-05_22h21.26.349,VisualSearchFaces,2024.2.4,MacIntel,62.5,,,,,,,,1155.54,1155.656,1155.656,1157.656,block3,f,1,1,11,51,32,1,0,top_right,friendly,no_target,0.769,,,,,,,,,,,,,,,,,
,,,,,370533,m,y,r,n,13,0,2025-04-05_22h21.26.349,VisualSearchFaces,2024.2.4,MacIntel,62.5,,,,,,,,1158.656,1158.772,1158.772,1160.772,block3,j,1,1,12,52,15,1,1,centre,threatening,neutral,0.484,,,,,,,,,,,,,,,,,
,,,,,370533,m,y,r,n,13,0,2025-04-05_22h21.26.349,VisualSearchFaces,2024.2.4,MacIntel,62.5,,,,,,,,1161.773,1161.872,1161.872,1163.872,block3,f,1,1,13,53,33,1,0,bottom_left,friendly,no_target,1.062,,,,,,,,,,,,,,,,,
,,,,,370533,m,y,r,n,13,0,2025-04-05_22h21.26.349,VisualSearchFaces,2024.2.4,MacIntel,62.5,,,,,,,,1164.872,1164.972,1164.972,1166.972,block3,f,1,1,14,54,39,1,0,bottom_right,threatening,no_target,0.685,,,,,,,,,,,,,,,,,
,,,,,370533,m,y,r,n,13,0,2025-04-05_22h21.26.349,VisualSearchFaces,2024.2.4,MacIntel,62.5,,,,,,,,1167.973,1168.089,1168.089,1170.089,block3,j,1,1,15,55,19,1,1,bottom_right,threatening,neutral,0.451,,,,,,,,,,,,,,,,,
,,,,,370533,m,y,r,n,13,0,2025-04-05_22h21.26.349,VisualSearchFaces,2024.2.4,MacIntel,62.5,,,,,,,,1171.089,1171.205,1171.205,1173.206,block3,f,1,1,16,56,24,1,0,bottom_right,neutral,no_target,0.908,,,,,,,,,,,,,,,,,
,,,,,370533,m,y,r,n,13,0,2025-04-05_22h21.26.349,VisualSearchFaces,2024.2.4,MacIntel,62.5,,,,,,,,1174.206,1174.322,1174.322,1176.322,block3,f,1,1,17,57,36,1,0,top_left,threatening,no_target,0.655,,,,,,,,,,,,,,,,,
,,,,,370533,m,y,r,n,13,0,2025-04-05_22h21.26.349,VisualSearchFaces,2024.2.4,MacIntel,62.5,,,,,,,,1177.322,1177.422,1177.422,1179.422,block3,j,1,1,18,58,18,1,1,bottom_left,threatening,neutral,0.405,,,,,,,,,,,,,,,,,
,,,,,370533,m,y,r,n,13,0,2025-04-05_22h21.26.349,VisualSearchFaces,2024.2.4,MacIntel,62.5,,,,,,,,1180.423,1180.539,1180.539,1182.539,block3,f,1,1,19,59,21,1,0,top_left,neutral,no_target,0.451,,,,,,,,,,,,,,,,,
,,,,,370533,m,y,r,n,13,0,2025-04-05_22h21.26.349,VisualSearchFaces,2024.2.4,MacIntel,62.5,,,,,,,,1183.54,1183.655,1183.655,1185.655,block3,j,1,1,20,60,1,1,1,top_left,neutral,friendly,0.419,,,,,,,,,,,,,,,,,
,,,,,370533,m,y,r,n,13,0,2025-04-05_22h21.26.349,VisualSearchFaces,2024.2.4,MacIntel,62.5,,,,,,,,1186.656,1186.772,1186.772,1188.772,block3,f,1,1,21,61,37,1,0,top_right,threatening,no_target,0.407,,,,,,,,,,,,,,,,,
,,,,,370533,m,y,r,n,13,0,2025-04-05_22h21.26.349,VisualSearchFaces,2024.2.4,MacIntel,62.5,,,,,,,,1189.773,1189.889,1189.889,1191.889,block3,f,1,1,22,62,22,1,0,top_right,neutral,no_target,0.476,,,,,,,,,,,,,,,,,
,,,,,370533,m,y,r,n,13,0,2025-04-05_22h21.26.349,VisualSearchFaces,2024.2.4,MacIntel,62.5,,,,,,,,1192.889,1193.005,1193.005,1195.004,block3,j,1,1,23,63,3,1,1,bottom_left,neutral,friendly,0.574,,,,,,,,,,,,,,,,,
,,,,,370533,m,y,r,n,13,0,2025-04-05_22h21.26.349,VisualSearchFaces,2024.2.4,MacIntel,62.5,,,,,,,,1196.006,1196.106,1196.106,1198.105,block3,j,1,1,24,64,4,1,1,bottom_right,neutral,friendly,0.533,,,,,,,,,,,,,,,,,
,,,,,370533,m,y,r,n,13,0,2025-04-05_22h21.26.349,VisualSearchFaces,2024.2.4,MacIntel,62.5,,,,,,,,1199.106,1199.222,1199.222,1201.222,block3,f,1,1,25,65,38,1,0,bottom_left,threatening,no_target,0.468,,,,,,,,,,,,,,,,,
,,,,,370533,m,y,r,n,13,0,2025-04-05_22h21.26.349,VisualSearchFaces,2024.2.4,MacIntel,62.5,,,,,,,,1202.223,1202.339,1202.339,1204.338,block3,f,1,1,26,66,27,1,0,top_right,neutral,no_target,0.449,,,,,,,,,,,,,,,,,
,,,,,370533,m,y,r,n,13,0,2025-04-05_22h21.26.349,VisualSearchFaces,2024.2.4,MacIntel,62.5,,,,,,,,1205.34,1205.455,1205.455,1207.455,block3,j,1,1,27,67,12,1,1,top_right,friendly,neutral,0.438,,,,,,,,,,,,,,,,,
,,,,,370533,m,y,r,n,13,0,2025-04-05_22h21.26.349,VisualSearchFaces,2024.2.4,MacIntel,62.5,,,,,,,,1208.456,1208.555,1208.555,1210.555,block3,j,1,1,28,68,2,1,1,top_right,neutral,friendly,0.47,,,,,,,,,,,,,,,,,
,,,,,370533,m,y,r,n,13,0,2025-04-05_22h21.26.349,VisualSearchFaces,2024.2.4,MacIntel,62.5,,,,,,,,1211.556,1211.672,1211.672,1213.672,block3,j,1,1,29,69,10,1,1,centre,friendly,neutral,0.556,,,,,,,,,,,,,,,,,
,,,,,370533,m,y,r,n,13,0,2025-04-05_22h21.26.349,VisualSearchFaces,2024.2.4,MacIntel,62.5,,,,,,,,1214.673,1214.789,1214.789,1216.789,block3,f,1,1,30,70,30,1,0,centre,friendly,no_target,0.436,,,,,,,,,,,,,,,,,
,,,,,370533,m,y,r,n,13,0,2025-04-05_22h21.26.349,VisualSearchFaces,2024.2.4,MacIntel,62.5,,,,,,,,1217.789,1217.905,1217.905,1219.905,block3,f,1,1,31,71,35,1,0,centre,threatening,no_target,0.477,,,,,,,,,,,,,,,,,
,,,,,370533,m,y,r,n,13,0,2025-04-05_22h21.26.349,VisualSearchFaces,2024.2.4,MacIntel,62.5,,,,,,,,1220.905,1221.022,1221.022,1223.022,block3,j,1,1,32,72,14,1,1,bottom_right,friendly,neutral,0.512,,,,,,,,,,,,,,,,,
,,,,,370533,m,y,r,n,13,0,2025-04-05_22h21.26.349,VisualSearchFaces,2024.2.4,MacIntel,62.5,,,,,,,,1224.022,1224.138,1224.138,1226.138,block3,f,1,1,33,73,31,1,0,top_left,friendly,no_target,1.502,,,,,,,,,,,,,,,,,
,,,,,370533,m,y,r,n,13,0,2025-04-05_22h21.26.349,VisualSearchFaces,2024.2.4,MacIntel,62.5,,,,,,,,1227.139,1227.255,1227.255,1229.255,block3,f,1,1,34,74,34,1,0,bottom_right,friendly,no_target,0.418,,,,,,,,,,,,,,,,,
,,,,,370533,m,y,r,n,13,0,2025-04-05_22h21.26.349,VisualSearchFaces,2024.2.4,MacIntel,62.5,,,,,,,,1230.256,1230.355,1230.355,1232.355,block3,j,1,1,35,75,17,1,1,top_right,threatening,neutral,0.469,,,,,,,,,,,,,,,,,
,,,,,370533,m,y,r,n,13,0,2025-04-05_22h21.26.349,VisualSearchFaces,2024.2.4,MacIntel,62.5,,,,,,,,1233.356,1233.472,1233.472,1235.472,block3,f,1,1,36,76,20,1,0,centre,neutral,no_target,0.857,,,,,,,,,,,,,,,,,
,,,,,370533,m,y,r,n,13,0,2025-04-05_22h21.26.349,VisualSearchFaces,2024.2.4,MacIntel,62.5,,,,,,,,1236.472,1236.588,1236.589,1238.588,block3,j,1,1,37,77,16,1,1,top_left,threatening,neutral,0.503,,,,,,,,,,,,,,,,,
,,,,,370533,m,y,r,n,13,0,2025-04-05_22h21.26.349,VisualSearchFaces,2024.2.4,MacIntel,62.5,,,,,,,,1239.588,1239.705,1239.705,1241.705,block3,f,1,1,38,78,29,1,0,bottom_right,neutral,no_target,0.43,,,,,,,,,,,,,,,,,
,,,,,370533,m,y,r,n,13,0,2025-04-05_22h21.26.349,VisualSearchFaces,2024.2.4,MacIntel,62.5,,,,,,,,1242.705,1242.805,1242.805,1244.805,block3,j,1,1,39,79,7,1,1,top_right,neutral,threatening,0.434,,,,,,,,,,,,,,,,,
,,,,,370533,m,y,r,n,13,0,2025-04-05_22h21.26.349,VisualSearchFaces,2024.2.4,MacIntel,62.5,,,1724.854,1726.019,space,1.132,,1727.019,1727.135,1727.135,1729.135,block4,f,1,0,0,0,28,1,0,bottom_left,neutral,no_target,0.785,,1244.807,1724.852,space,480.019,,,,,,,,,,,,
,,,,,370533,m,y,r,n,13,0,2025-04-05_22h21.26.349,VisualSearchFaces,2024.2.4,MacIntel,62.5,,,,,,,,1730.136,1730.252,1730.252,1732.252,block4,j,1,0,1,1,4,1,1,bottom_right,neutral,friendly,0.468,,,,,,,,,,,,,,,,,
,,,,,370533,m,y,r,n,13,0,2025-04-05_22h21.26.349,VisualSearchFaces,2024.2.4,MacIntel,62.5,,,,,,,,1733.253,1733.368,1733.368,1735.368,block4,f,0,0,2,2,16,1,1,top_left,threatening,neutral,0.718,,,,,,,,,,,,,,,,,
,,,,,370533,m,y,r,n,13,0,2025-04-05_22h21.26.349,VisualSearchFaces,2024.2.4,MacIntel,62.5,,,,,,,,1736.369,1736.468,1736.468,1738.468,block4,j,1,0,3,3,0,1,1,centre,neutral,friendly,0.534,,,,,,,,,,,,,,,,,
,,,,,370533,m,y,r,n,13,0,2025-04-05_22h21.26.349,VisualSearchFaces,2024.2.4,MacIntel,62.5,,,,,,,,1739.469,1739.585,1739.585,1741.585,block4,f,1,0,4,4,31,1,0,top_left,friendly,no_target,0.435,,,,,,,,,,,,,,,,,
,,,,,370533,m,y,r,n,13,0,2025-04-05_22h21.26.349,VisualSearchFaces,2024.2.4,MacIntel,62.5,,,,,,,,1742.586,1742.702,1742.702,1744.702,block4,f,1,0,5,5,33,1,0,bottom_left,friendly,no_target,0.453,,,,,,,,,,,,,,,,,
,,,,,370533,m,y,r,n,13,0,2025-04-05_22h21.26.349,VisualSearchFaces,2024.2.4,MacIntel,62.5,,,,,,,,1745.702,1745.818,1745.818,1747.818,block4,f,1,0,6,6,29,1,0,bottom_right,neutral,no_target,0.479,,,,,,,,,,,,,,,,,
,,,,,370533,m,y,r,n,13,0,2025-04-05_22h21.26.349,VisualSearchFaces,2024.2.4,MacIntel,62.5,,,,,,,,1748.819,1748.934,1748.934,1750.934,block4,f,1,0,7,7,37,1,0,top_right,threatening,no_target,0.435,,,,,,,,,,,,,,,,,
,,,,,370533,m,y,r,n,13,0,2025-04-05_22h21.26.349,VisualSearchFaces,2024.2.4,MacIntel,62.5,,,,,,,,1751.936,1752.035,1752.035,1754.035,block4,f,1,0,8,8,32,1,0,top_right,friendly,no_target,0.483,,,,,,,,,,,,,,,,,
,,,,,370533,m,y,r,n,13,0,2025-04-05_22h21.26.349,VisualSearchFaces,2024.2.4,MacIntel,62.5,,,,,,,,1755.036,1755.152,1755.152,1757.151,block4,j,1,0,9,9,19,1,1,bottom_right,threatening,neutral,0.474,,,,,,,,,,,,,,,,,
,,,,,370533,m,y,r,n,13,0,2025-04-05_22h21.26.349,VisualSearchFaces,2024.2.4,MacIntel,62.5,,,,,,,,1758.152,1758.268,1758.268,1760.268,block4,j,1,0,10,10,10,1,1,centre,friendly,neutral,0.467,,,,,,,,,,,,,,,,,
,,,,,370533,m,y,r,n,13,0,2025-04-05_22h21.26.349,VisualSearchFaces,2024.2.4,MacIntel,62.5,,,,,,,,1761.269,1761.385,1761.385,1763.385,block4,f,1,0,11,11,20,1,0,centre,neutral,no_target,0.45,,,,,,,,,,,,,,,,,
,,,,,370533,m,y,r,n,13,0,2025-04-05_22h21.26.349,VisualSearchFaces,2024.2.4,MacIntel,62.5,,,,,,,,1764.386,1764.501,1764.501,1766.501,block4,f,1,0,12,12,25,1,0,centre,neutral,no_target,0.972,,,,,,,,,,,,,,,,,
,,,,,370533,m,y,r,n,13,0,2025-04-05_22h21.26.349,VisualSearchFaces,2024.2.4,MacIntel,62.5,,,,,,,,1767.502,1767.618,1767.618,1769.618,block4,j,1,0,13,13,18,1,1,bottom_left,threatening,neutral,0.539,,,,,,,,,,,,,,,,,
,,,,,370533,m,y,r,n,13,0,2025-04-05_22h21.26.349,VisualSearchFaces,2024.2.4,MacIntel,62.5,,,,,,,,1770.619,1770.718,1770.718,1772.719,block4,j,1,0,14,14,11,1,1,top_left,friendly,neutral,0.534,,,,,,,,,,,,,,,,,
,,,,,370533,m,y,r,n,13,0,2025-04-05_22h21.26.349,VisualSearchFaces,2024.2.4,MacIntel,62.5,,,,,,,,1773.719,1773.835,1773.835,1775.835,block4,j,1,0,15,15,13,1,1,bottom_left,friendly,neutral,0.516,,,,,,,,,,,,,,,,,
,,,,,370533,m,y,r,n,13,0,2025-04-05_22h21.26.349,VisualSearchFaces,2024.2.4,MacIntel,62.5,,,,,,,,1776.835,1776.951,1776.951,1778.951,block4,j,1,0,16,16,1,1,1,top_left,neutral,friendly,0.619,,,,,,,,,,,,,,,,,
,,,,,370533,m,y,r,n,13,0,2025-04-05_22h21.26.349,VisualSearchFaces,2024.2.4,MacIntel,62.5,,,,,,,,1779.951,1780.067,1780.067,1782.068,block4,j,1,0,17,17,7,1,1,top_right,neutral,threatening,0.509,,,,,,,,,,,,,,,,,
,,,,,370533,m,y,r,n,13,0,2025-04-05_22h21.26.349,VisualSearchFaces,2024.2.4,MacIntel,62.5,,,,,,,,1783.069,1783.185,1783.185,1785.185,block4,j,1,0,18,18,6,1,1,top_left,neutral,threatening,0.409,,,,,,,,,,,,,,,,,
,,,,,370533,m,y,r,n,13,0,2025-04-05_22h21.26.349,VisualSearchFaces,2024.2.4,MacIntel,62.5,,,,,,,,1786.185,1786.285,1786.285,1788.285,block4,j,1,0,19,19,8,1,1,bottom_left,neutral,threatening,0.388,,,,,,,,,,,,,,,,,
,,,,,370533,m,y,r,n,13,0,2025-04-05_22h21.26.349,VisualSearchFaces,2024.2.4,MacIntel,62.5,,,,,,,,1789.286,1789.402,1789.402,1791.401,block4,f,1,0,20,20,38,1,0,bottom_left,threatening,no_target,0.502,,,,,,,,,,,,,,,,,
,,,,,370533,m,y,r,n,13,0,2025-04-05_22h21.26.349,VisualSearchFaces,2024.2.4,MacIntel,62.5,,,,,,,,1792.402,1792.518,1792.518,1794.518,block4,f,1,0,21,21,26,1,0,top_left,neutral,no_target,0.434,,,,,,,,,,,,,,,,,
,,,,,370533,m,y,r,n,13,0,2025-04-05_22h21.26.349,VisualSearchFaces,2024.2.4,MacIntel,62.5,,,,,,,,1795.519,1795.635,1795.635,1797.634,block4,f,1,0,22,22,22,1,0,top_right,neutral,no_target,0.367,,,,,,,,,,,,,,,,,
,,,,,370533,m,y,r,n,13,0,2025-04-05_22h21.26.349,VisualSearchFaces,2024.2.4,MacIntel,62.5,,,,,,,,1798.635,1798.751,1798.751,1800.751,block4,j,1,0,23,23,5,1,1,centre,neutral,threatening,0.342,,,,,,,,,,,,,,,,,
,,,,,370533,m,y,r,n,13,0,2025-04-05_22h21.26.349,VisualSearchFaces,2024.2.4,MacIntel,62.5,,,,,,,,1801.752,1801.868,1801.868,1803.868,block4,f,1,0,24,24,27,1,0,top_right,neutral,no_target,0.566,,,,,,,,,,,,,,,,,
,,,,,370533,m,y,r,n,13,0,2025-04-05_22h21.26.349,VisualSearchFaces,2024.2.4,MacIntel,62.5,,,,,,,,1804.869,1804.985,1804.985,1806.984,block4,f,1,0,25,25,39,1,0,bottom_right,threatening,no_target,0.541,,,,,,,,,,,,,,,,,
,,,,,370533,m,y,r,n,13,0,2025-04-05_22h21.26.349,VisualSearchFaces,2024.2.4,MacIntel,62.5,,,,,,,,1807.985,1808.085,1808.085,1810.084,block4,f,1,0,26,26,30,1,0,centre,friendly,no_target,0.424,,,,,,,,,,,,,,,,,
,,,,,370533,m,y,r,n,13,0,2025-04-05_22h21.26.349,VisualSearchFaces,2024.2.4,MacIntel,62.5,,,,,,,,1811.085,1811.202,1811.202,1813.201,block4,f,1,0,27,27,36,1,0,top_left,threatening,no_target,0.486,,,,,,,,,,,,,,,,,
,,,,,370533,m,y,r,n,13,0,2025-04-05_22h21.26.349,VisualSearchFaces,2024.2.4,MacIntel,62.5,,,,,,,,1814.202,1814.318,1814.318,1816.318,block4,j,1,0,28,28,2,1,1,top_right,neutral,friendly,0.441,,,,,,,,,,,,,,,,,
,,,,,370533,m,y,r,n,13,0,2025-04-05_22h21.26.349,VisualSearchFaces,2024.2.4,MacIntel,62.5,,,,,,,,1817.318,1817.434,1817.434,1819.434,block4,f,1,0,29,29,21,1,0,top_left,neutral,no_target,0.409,,,,,,,,,,,,,,,,,
,,,,,370533,m,y,r,n,13,0,2025-04-05_22h21.26.349,VisualSearchFaces,2024.2.4,MacIntel,62.5,,,,,,,,1820.435,1820.551,1820.551,1822.551,block4,j,1,0,30,30,12,1,1,top_right,friendly,neutral,0.418,,,,,,,,,,,,,,,,,
,,,,,370533,m,y,r,n,13,0,2025-04-05_22h21.26.349,VisualSearchFaces,2024.2.4,MacIntel,62.5,,,,,,,,1823.552,1823.651,1823.651,1825.651,block4,f,1,0,31,31,24,1,0,bottom_right,neutral,no_target,0.606,,,,,,,,,,,,,,,,,
,,,,,370533,m,y,r,n,13,0,2025-04-05_22h21.26.349,VisualSearchFaces,2024.2.4,MacIntel,62.5,,,,,,,,1826.652,1826.768,1826.768,1828.768,block4,j,1,0,32,32,15,1,1,centre,threatening,neutral,0.489,,,,,,,,,,,,,,,,,
,,,,,370533,m,y,r,n,13,0,2025-04-05_22h21.26.349,VisualSearchFaces,2024.2.4,MacIntel,62.5,,,,,,,,1829.769,1829.884,1829.885,1831.884,block4,f,1,0,33,33,35,1,0,centre,threatening,no_target,0.668,,,,,,,,,,,,,,,,,
,,,,,370533,m,y,r,n,13,0,2025-04-05_22h21.26.349,VisualSearchFaces,2024.2.4,MacIntel,62.5,,,,,,,,1832.886,1833.002,1833.002,1835.001,block4,j,1,0,34,34,3,1,1,bottom_left,neutral,friendly,0.476,,,,,,,,,,,,,,,,,
,,,,,370533,m,y,r,n,13,0,2025-04-05_22h21.26.349,VisualSearchFaces,2024.2.4,MacIntel,62.5,,,,,,,,1836.002,1836.118,1836.118,1838.118,block4,f,1,0,35,35,34,1,0,bottom_right,friendly,no_target,0.478,,,,,,,,,,,,,,,,,
,,,,,370533,m,y,r,n,13,0,2025-04-05_22h21.26.349,VisualSearchFaces,2024.2.4,MacIntel,62.5,,,,,,,,1839.118,1839.218,1839.218,1841.218,block4,j,1,0,36,36,14,1,1,bottom_right,friendly,neutral,0.557,,,,,,,,,,,,,,,,,
,,,,,370533,m,y,r,n,13,0,2025-04-05_22h21.26.349,VisualSearchFaces,2024.2.4,MacIntel,62.5,,,,,,,,1842.219,1842.335,1842.335,1844.334,block4,j,1,0,37,37,17,1,1,top_right,threatening,neutral,0.385,,,,,,,,,,,,,,,,,
,,,,,370533,m,y,r,n,13,0,2025-04-05_22h21.26.349,VisualSearchFaces,2024.2.4,MacIntel,62.5,,,,,,,,1845.335,1845.45,1845.45,1847.451,block4,f,1,0,38,38,23,1,0,bottom_left,neutral,no_target,0.452,,,,,,,,,,,,,,,,,
,,,,,370533,m,y,r,n,13,0,2025-04-05_22h21.26.349,VisualSearchFaces,2024.2.4,MacIntel,62.5,,,,,,,,1848.451,1848.568,1848.568,1850.568,block4,j,1,0,39,39,9,1,1,bottom_right,neutral,threatening,0.416,,,,,,,,,,,,,,,,,
,,,,,370533,m,y,r,n,13,0,2025-04-05_22h21.26.349,VisualSearchFaces,2024.2.4,MacIntel,62.5,,,,,,,,1851.569,1851.685,1851.685,1853.684,block4,j,1,1,0,40,11,1,1,top_left,friendly,neutral,0.508,,,,,,,,,,,,,,,,,
,,,,,370533,m,y,r,n,13,0,2025-04-05_22h21.26.349,VisualSearchFaces,2024.2.4,MacIntel,62.5,,,,,,,,1854.685,1854.801,1854.801,1856.801,block4,j,1,1,1,41,9,1,1,bottom_right,neutral,threatening,0.735,,,,,,,,,,,,,,,,,
,,,,,370533,m,y,r,n,13,0,2025-04-05_22h21.26.349,VisualSearchFaces,2024.2.4,MacIntel,62.5,,,,,,,,1857.802,1857.901,1857.901,1859.901,block4,j,1,1,2,42,3,1,1,bottom_left,neutral,friendly,0.561,,,,,,,,,,,,,,,,,
,,,,,370533,m,y,r,n,13,0,2025-04-05_22h21.26.349,VisualSearchFaces,2024.2.4,MacIntel,62.5,,,,,,,,1860.902,1861.018,1861.018,1863.017,block4,f,1,1,3,43,29,1,0,bottom_right,neutral,no_target,0.823,,,,,,,,,,,,,,,,,
,,,,,370533,m,y,r,n,13,0,2025-04-05_22h21.26.349,VisualSearchFaces,2024.2.4,MacIntel,62.5,,,,,,,,1864.018,1864.134,1864.134,1866.134,block4,f,1,1,4,44,34,1,0,bottom_right,friendly,no_target,0.513,,,,,,,,,,,,,,,,,
,,,,,370533,m,y,r,n,13,0,2025-04-05_22h21.26.349,VisualSearchFaces,2024.2.4,MacIntel,62.5,,,,,,,,1867.135,1867.251,1867.251,1869.251,block4,f,1,1,5,45,24,1,0,bottom_right,neutral,no_target,0.467,,,,,,,,,,,,,,,,,
,,,,,370533,m,y,r,n,13,0,2025-04-05_22h21.26.349,VisualSearchFaces,2024.2.4,MacIntel,62.5,,,,,,,,1870.252,1870.368,1870.368,1872.368,block4,f,1,1,6,46,33,1,0,bottom_left,friendly,no_target,0.468,,,,,,,,,,,,,,,,,
,,,,,370533,m,y,r,n,13,0,2025-04-05_22h21.26.349,VisualSearchFaces,2024.2.4,MacIntel,62.5,,,,,,,,1873.368,1873.484,1873.485,1875.484,block4,j,1,1,7,47,1,1,1,top_left,neutral,friendly,0.438,,,,,,,,,,,,,,,,,
,,,,,370533,m,y,r,n,13,0,2025-04-05_22h21.26.349,VisualSearchFaces,2024.2.4,MacIntel,62.5,,,,,,,,1876.485,1876.584,1876.584,1878.584,block4,f,1,1,8,48,37,1,0,top_right,threatening,no_target,0.451,,,,,,,,,,,,,,,,,
,,,,,370533,m,y,r,n,13,0,2025-04-05_22h21.26.349,VisualSearchFaces,2024.2.4,MacIntel,62.5,,,,,,,,1879.585,1879.701,1879.701,1881.701,block4,f,1,1,9,49,28,1,0,bottom_left,neutral,no_target,0.471,,,,,,,,,,,,,,,,,
,,,,,370533,m,y,r,n,13,0,2025-04-05_22h21.26.349,VisualSearchFaces,2024.2.4,MacIntel,62.5,,,,,,,,1882.701,1882.817,1882.817,1884.817,block4,j,1,1,10,50,13,1,1,bottom_left,friendly,neutral,0.474,,,,,,,,,,,,,,,,,
,,,,,370533,m,y,r,n,13,0,2025-04-05_22h21.26.349,VisualSearchFaces,2024.2.4,MacIntel,62.5,,,,,,,,1885.818,1885.934,1885.934,1887.934,block4,j,1,1,11,51,12,1,1,top_right,friendly,neutral,0.405,,,,,,,,,,,,,,,,,
,,,,,370533,m,y,r,n,13,0,2025-04-05_22h21.26.349,VisualSearchFaces,2024.2.4,MacIntel,62.5,,,,,,,,1888.935,1889.051,1889.051,1891.051,block4,j,1,1,12,52,19,1,1,bottom_right,threatening,neutral,0.459,,,,,,,,,,,,,,,,,
,,,,,370533,m,y,r,n,13,0,2025-04-05_22h21.26.349,VisualSearchFaces,2024.2.4,MacIntel,62.5,,,,,,,,1892.052,1892.151,1892.151,1894.151,block4,f,1,1,13,53,38,1,0,bottom_left,threatening,no_target,0.543,,,,,,,,,,,,,,,,,
,,,,,370533,m,y,r,n,13,0,2025-04-05_22h21.26.349,VisualSearchFaces,2024.2.4,MacIntel,62.5,,,,,,,,1895.152,1895.267,1895.268,1897.267,block4,j,1,1,14,54,15,1,1,centre,threatening,neutral,0.485,,,,,,,,,,,,,,,,,
,,,,,370533,m,y,r,n,13,0,2025-04-05_22h21.26.349,VisualSearchFaces,2024.2.4,MacIntel,62.5,,,,,,,,1898.268,1898.384,1898.384,1900.384,block4,j,1,1,15,55,7,1,1,top_right,neutral,threatening,0.566,,,,,,,,,,,,,,,,,
,,,,,370533,m,y,r,n,13,0,2025-04-05_22h21.26.349,VisualSearchFaces,2024.2.4,MacIntel,62.5,,,,,,,,1901.385,1901.501,1901.501,1903.501,block4,f,1,1,16,56,31,1,0,top_left,friendly,no_target,0.461,,,,,,,,,,,,,,,,,
,,,,,370533,m,y,r,n,13,0,2025-04-05_22h21.26.349,VisualSearchFaces,2024.2.4,MacIntel,62.5,,,,,,,,1904.501,1904.618,1904.618,1906.617,block4,j,1,1,17,57,16,1,1,top_left,threatening,neutral,0.427,,,,,,,,,,,,,,,,,
,,,,,370533,m,y,r,n,13,0,2025-04-05_22h21.26.349,VisualSearchFaces,2024.2.4,MacIntel,62.5,,,,,,,,1907.618,1907.734,1907.734,1909.734,block4,f,1,1,18,58,36,1,0,top_left,threatening,no_target,0.357,,,,,,,,,,,,,,,,,
,,,,,370533,m,y,r,n,13,0,2025-04-05_22h21.26.349,VisualSearchFaces,2024.2.4,MacIntel,62.5,,,,,,,,1910.735,1910.834,1910.834,1912.834,block4,j,1,1,19,59,14,1,1,bottom_right,friendly,neutral,0.376,,,,,,,,,,,,,,,,,
,,,,,370533,m,y,r,n,13,0,2025-04-05_22h21.26.349,VisualSearchFaces,2024.2.4,MacIntel,62.5,,,,,,,,1913.835,1913.951,1913.951,1915.951,block4,f,1,1,20,60,26,1,0,top_left,neutral,no_target,0.473,,,,,,,,,,,,,,,,,
,,,,,370533,m,y,r,n,13,0,2025-04-05_22h21.26.349,VisualSearchFaces,2024.2.4,MacIntel,62.5,,,,,,,,1916.952,1917.067,1917.068,1919.067,block4,j,1,1,21,61,2,1,1,top_right,neutral,friendly,0.393,,,,,,,,,,,,,,,,,
,,,,,370533,m,y,r,n,13,0,2025-04-05_22h21.26.349,VisualSearchFaces,2024.2.4,MacIntel,62.5,,,,,,,,1920.068,1920.184,1920.184,1922.184,block4,f,1,1,22,62,39,1,0,bottom_right,threatening,no_target,0.455,,,,,,,,,,,,,,,,,
,,,,,370533,m,y,r,n,13,0,2025-04-05_22h21.26.349,VisualSearchFaces,2024.2.4,MacIntel,62.5,,,,,,,,1923.185,1923.301,1923.301,1925.301,block4,f,1,1,23,63,25,1,0,centre,neutral,no_target,0.543,,,,,,,,,,,,,,,,,
,,,,,370533,m,y,r,n,13,0,2025-04-05_22h21.26.349,VisualSearchFaces,2024.2.4,MacIntel,62.5,,,,,,,,1926.301,1926.418,1926.418,1928.417,block4,f,1,1,24,64,22,1,0,top_right,neutral,no_target,0.484,,,,,,,,,,,,,,,,,
,,,,,370533,m,y,r,n,13,0,2025-04-05_22h21.26.349,VisualSearchFaces,2024.2.4,MacIntel,62.5,,,,,,,,1929.418,1929.533,1929.533,1931.534,block4,j,1,1,25,65,6,1,1,top_left,neutral,threatening,0.551,,,,,,,,,,,,,,,,,
,,,,,370533,m,y,r,n,13,0,2025-04-05_22h21.26.349,VisualSearchFaces,2024.2.4,MacIntel,62.5,,,,,,,,1932.535,1932.634,1932.634,1934.634,block4,j,1,1,26,66,8,1,1,bottom_left,neutral,threatening,0.505,,,,,,,,,,,,,,,,,
,,,,,370533,m,y,r,n,13,0,2025-04-05_22h21.26.349,VisualSearchFaces,2024.2.4,MacIntel,62.5,,,,,,,,1935.634,1935.75,1935.75,1937.751,block4,f,1,1,27,67,27,1,0,top_right,neutral,no_target,0.45,,,,,,,,,,,,,,,,,
,,,,,370533,m,y,r,n,13,0,2025-04-05_22h21.26.349,VisualSearchFaces,2024.2.4,MacIntel,62.5,,,,,,,,1938.752,1938.867,1938.867,1940.867,block4,j,1,1,28,68,4,1,1,bottom_right,neutral,friendly,0.491,,,,,,,,,,,,,,,,,
,,,,,370533,m,y,r,n,13,0,2025-04-05_22h21.26.349,VisualSearchFaces,2024.2.4,MacIntel,62.5,,,,,,,,1941.868,1941.984,1941.984,1943.984,block4,j,1,1,29,69,0,1,1,centre,neutral,friendly,0.867,,,,,,,,,,,,,,,,,
,,,,,370533,m,y,r,n,13,0,2025-04-05_22h21.26.349,VisualSearchFaces,2024.2.4,MacIntel,62.5,,,,,,,,1944.984,1945.084,1945.084,1947.084,block4,j,1,1,30,70,10,1,1,centre,friendly,neutral,1.227,,,,,,,,,,,,,,,,,
,,,,,370533,m,y,r,n,13,0,2025-04-05_22h21.26.349,VisualSearchFaces,2024.2.4,MacIntel,62.5,,,,,,,,1948.084,1948.2,1948.201,1950.2,block4,f,1,1,31,71,23,1,0,bottom_left,neutral,no_target,0.453,,,,,,,,,,,,,,,,,
,,,,,370533,m,y,r,n,13,0,2025-04-05_22h21.26.349,VisualSearchFaces,2024.2.4,MacIntel,62.5,,,,,,,,1951.201,1951.317,1951.317,1953.317,block4,f,1,1,32,72,30,1,0,centre,friendly,no_target,0.627,,,,,,,,,,,,,,,,,
,,,,,370533,m,y,r,n,13,0,2025-04-05_22h21.26.349,VisualSearchFaces,2024.2.4,MacIntel,62.5,,,,,,,,1954.318,1954.434,1954.434,1956.434,block4,f,1,1,33,73,35,1,0,centre,threatening,no_target,0.485,,,,,,,,,,,,,,,,,
,,,,,370533,m,y,r,n,13,0,2025-04-05_22h21.26.349,VisualSearchFaces,2024.2.4,MacIntel,62.5,,,,,,,,1957.434,1957.55,1957.55,1959.551,block4,j,1,1,34,74,17,1,1,top_right,threatening,neutral,0.449,,,,,,,,,,,,,,,,,
,,,,,370533,m,y,r,n,13,0,2025-04-05_22h21.26.349,VisualSearchFaces,2024.2.4,MacIntel,62.5,,,,,,,,1960.551,1960.667,1960.667,1962.667,block4,j,1,1,35,75,18,1,1,bottom_left,threatening,neutral,0.599,,,,,,,,,,,,,,,,,
,,,,,370533,m,y,r,n,13,0,2025-04-05_22h21.26.349,VisualSearchFaces,2024.2.4,MacIntel,62.5,,,,,,,,1963.668,1963.784,1963.784,1965.783,block4,f,1,1,36,76,21,1,0,top_left,neutral,no_target,0.74,,,,,,,,,,,,,,,,,
,,,,,370533,m,y,r,n,13,0,2025-04-05_22h21.26.349,VisualSearchFaces,2024.2.4,MacIntel,62.5,,,,,,,,1966.785,1966.9,1966.901,1968.9,block4,j,1,1,37,77,5,1,1,centre,neutral,threatening,0.385,,,,,,,,,,,,,,,,,
,,,,,370533,m,y,r,n,13,0,2025-04-05_22h21.26.349,VisualSearchFaces,2024.2.4,MacIntel,62.5,,,,,,,,1969.901,1970.017,1970.017,1972.017,block4,f,1,1,38,78,32,1,0,top_right,friendly,no_target,0.425,,,,,,,,,,,,,,,,,
,,,,,370533,m,y,r,n,13,0,2025-04-05_22h21.26.349,VisualSearchFaces,2024.2.4,MacIntel,62.5,,,,,,,,1973.018,1973.133,1973.133,1975.134,block4,f,1,1,39,79,20,1,0,centre,neutral,no_target,0.451,,,,,,,,,,,,,,,,,
,,,,,370533,m,y,r,n,13,0,2025-04-05_22h21.26.349,VisualSearchFaces,2024.2.4,MacIntel,62.5,,,,,,,,,,,,,,,,,,,,,,,,,,1975.136,2005.867,space,30.702,,2005.871,2166.637,multiple types of stimuli with diagonal and horizontal stripes that alternated. whether there were outlier horizontals or diagonals stood out.,1,[2166.633],[2166.633],,,,,
,,,,,370533,m,y,r,n,13,0,2025-04-05_22h21.26.349,VisualSearchFaces,2024.2.4,MacIntel,62.5,,,,,,,,,,,,,,,,,,,,,,,,,,,,,,,,,,,,,2166.637,2173.708,space,7.054,
