Welcome.started,Welcome.stopped,keyboard_space_welcome.keys,keyboard_space_welcome.rt,keyboard_space_welcome.duration,participant,gender,(corrected) normal vision,handedness,exp vse,session,skip_intro,date,expName,psychopyVersion,OS,frameRate,stimulus_exposure.started,stimulus_exposure.stopped,Block_intro.started,Block_intro.stopped,keyboard_space.keys,keyboard_space.rt,keyboard_space.duration,Stimulus.started,Stimulus.stopped,fixation_ending.started,fixation_ending.stopped,block_id,keyboard_response.keys,keyboard_response.corr,trials.thisRepN,trials.thisTrialN,trials.thisN,trials.thisIndex,trials.ran,target_presence,target_position,background_emotion,target_emotion,keyboard_response.rt,keyboard_response.duration,Block_outro.started,Block_outro.stopped,keyboard_space_end.keys,keyboard_space_end.rt,keyboard_space_end.duration,Question_about_stimulus.started,Question_about_stimulus.stopped,textbox_response.text,button.numClicks,button.timesOn,button.timesOff,Thanks.started,Thanks.stopped,keyboard_space_goodbye.keys,keyboard_space_goodbye.rt,keyboard_space_goodbye.duration
0.0008,57.2532,space,57.161,,438778,f,y,r,n,14,0,2025-04-03_14h12.11.190,VisualSearchFaces,2024.2.4,Win32,59.88023952,,,,,,,,,,,,,,,,,,,,,,,,,,,,,,,,,,,,,,,,,
,,,,,438778,f,y,r,n,14,0,2025-04-03_14h12.11.190,VisualSearchFaces,2024.2.4,Win32,59.88023952,78.4074,81.421,81.4318,109.4083,space,27.9418,,110.4102,110.6731,110.6734,112.6735,practice1,,0,0,0,0,23,1,0,bottom_left,neutral,no_target,,,,,,,,,,,,,,,,,,
,,,,,438778,f,y,r,n,14,0,2025-04-03_14h12.11.190,VisualSearchFaces,2024.2.4,Win32,59.88023952,,,,,,,,113.6765,113.9397,113.9398,115.9399,practice1,j,1,0,1,1,1,1,1,top_left,neutral,friendly,1.2059,,,,,,,,,,,,,,,,,
,,,,,438778,f,y,r,n,14,0,2025-04-03_14h12.11.190,VisualSearchFaces,2024.2.4,Win32,59.88023952,,,,,,,,116.9429,117.2067,117.2068,119.2066,practice1,j,1,0,2,2,15,1,1,centre,threatening,neutral,1.6729,,,,,,,,,,,,,,,,,
,,,,,438778,f,y,r,n,14,0,2025-04-03_14h12.11.190,VisualSearchFaces,2024.2.4,Win32,59.88023952,,,,,,,,120.209,120.4735,120.4736,122.4737,practice1,j,1,0,3,3,12,1,1,top_right,friendly,neutral,1.4335,,,,,,,,,,,,,,,,,
,,,,,438778,f,y,r,n,14,0,2025-04-03_14h12.11.190,VisualSearchFaces,2024.2.4,Win32,59.88023952,,,,,,,,123.4765,123.7241,123.7242,125.7245,practice1,f,1,0,4,4,37,1,0,top_right,threatening,no_target,1.1699,,,,,,,,,,,,,,,,,
,,,,,438778,f,y,r,n,14,0,2025-04-03_14h12.11.190,VisualSearchFaces,2024.2.4,Win32,59.88023952,,,,,,,,126.726,126.9748,126.9749,128.9739,practice1,f,1,0,5,5,29,1,0,bottom_right,neutral,no_target,0.3825,,,,,,,,,,,,,,,,,
,,,,,438778,f,y,r,n,14,0,2025-04-03_14h12.11.190,VisualSearchFaces,2024.2.4,Win32,59.88023952,,,,,,,,129.9766,130.2408,130.2409,132.2408,practice1,f,1,0,6,6,20,1,0,centre,neutral,no_target,0.3666,,,,,,,,,,,,,,,,,
,,,,,438778,f,y,r,n,14,0,2025-04-03_14h12.11.190,VisualSearchFaces,2024.2.4,Win32,59.88023952,,,,,,,,133.2433,133.4917,133.4918,135.4912,practice1,j,1,0,7,7,17,1,1,top_right,threatening,neutral,0.3972,,,,,,,,,,,,,,,,,
,,,,,438778,f,y,r,n,14,0,2025-04-03_14h12.11.190,VisualSearchFaces,2024.2.4,Win32,59.88023952,,,,,,,,136.4939,136.758,136.758,138.7582,practice1,f,1,0,8,8,22,1,0,top_right,neutral,no_target,0.3197,,,,,,,,,,,,,,,,,
,,,,,438778,f,y,r,n,14,0,2025-04-03_14h12.11.190,VisualSearchFaces,2024.2.4,Win32,59.88023952,,,,,,,,139.7626,140.0249,140.0251,142.0249,practice1,j,1,0,9,9,8,1,1,bottom_left,neutral,threatening,0.5222,,,,,,,,,,,,,,,,,
,,,,,438778,f,y,r,n,14,0,2025-04-03_14h12.11.190,VisualSearchFaces,2024.2.4,Win32,59.88023952,,,,,,,,143.0276,143.2916,143.2917,145.2917,practice1,j,1,0,10,10,10,1,1,centre,friendly,neutral,0.5853,,,,,,,,,,,,,,,,,
,,,,,438778,f,y,r,n,14,0,2025-04-03_14h12.11.190,VisualSearchFaces,2024.2.4,Win32,59.88023952,,,,,,,,146.2947,146.5587,146.5588,148.5586,practice1,j,1,0,11,11,5,1,1,centre,neutral,threatening,0.4536,,,,,,,,,,,,,,,,,
,,,,,438778,f,y,r,n,14,0,2025-04-03_14h12.11.190,VisualSearchFaces,2024.2.4,Win32,59.88023952,,,,,,,,149.5621,149.8254,149.8254,151.8262,practice1,f,1,0,12,12,32,1,0,top_right,friendly,no_target,0.2047,,,,,,,,,,,,,,,,,
,,,,,438778,f,y,r,n,14,0,2025-04-03_14h12.11.190,VisualSearchFaces,2024.2.4,Win32,59.88023952,,,,,,,,152.8278,153.0924,153.0924,155.0926,practice1,j,1,0,13,13,18,1,1,bottom_left,threatening,neutral,1.1901,,,,,,,,,,,,,,,,,
,,,,,438778,f,y,r,n,14,0,2025-04-03_14h12.11.190,VisualSearchFaces,2024.2.4,Win32,59.88023952,,,,,,,,156.0949,156.3593,156.3593,158.3593,practice1,j,1,0,14,14,11,1,1,top_left,friendly,neutral,1.005,,,,,,,,,,,,,,,,,
,,,,,438778,f,y,r,n,14,0,2025-04-03_14h12.11.190,VisualSearchFaces,2024.2.4,Win32,59.88023952,,,,,,,,159.3623,159.6261,159.6262,161.6262,practice1,f,1,0,15,15,35,1,0,centre,threatening,no_target,0.9606,,,,,,,,,,,,,,,,,
,,,,,438778,f,y,r,n,14,0,2025-04-03_14h12.11.190,VisualSearchFaces,2024.2.4,Win32,59.88023952,,,,,,,,162.6307,162.8933,162.8933,164.8933,practice1,f,1,0,16,16,28,1,0,bottom_left,neutral,no_target,0.3135,,,,,,,,,,,,,,,,,
,,,,,438778,f,y,r,n,14,0,2025-04-03_14h12.11.190,VisualSearchFaces,2024.2.4,Win32,59.88023952,,,,,,,,165.897,166.16,166.16,168.1599,practice1,j,1,0,17,17,6,1,1,top_left,neutral,threatening,0.5321,,,,,,,,,,,,,,,,,
,,,,,438778,f,y,r,n,14,0,2025-04-03_14h12.11.190,VisualSearchFaces,2024.2.4,Win32,59.88023952,,,,,,,,169.1624,169.4103,169.4103,171.4104,practice1,j,1,0,18,18,19,1,1,bottom_right,threatening,neutral,1.8539,,,,,,,,,,,,,,,,,
,,,,,438778,f,y,r,n,14,0,2025-04-03_14h12.11.190,VisualSearchFaces,2024.2.4,Win32,59.88023952,,,,,,,,172.4134,172.677,172.6771,174.6776,practice1,f,1,0,19,19,39,1,0,bottom_right,threatening,no_target,1.7838,,,,,,,,,,,,,,,,,
,,,,,438778,f,y,r,n,14,0,2025-04-03_14h12.11.190,VisualSearchFaces,2024.2.4,Win32,59.88023952,,,,,,,,175.6798,175.9439,175.9439,177.9441,practice1,f,1,0,20,20,38,1,0,bottom_left,threatening,no_target,1.8863,,,,,,,,,,,,,,,,,
,,,,,438778,f,y,r,n,14,0,2025-04-03_14h12.11.190,VisualSearchFaces,2024.2.4,Win32,59.88023952,,,,,,,,178.9471,179.2108,179.2109,181.2111,practice1,j,1,0,21,21,7,1,1,top_right,neutral,threatening,1.1533,,,,,,,,,,,,,,,,,
,,,,,438778,f,y,r,n,14,0,2025-04-03_14h12.11.190,VisualSearchFaces,2024.2.4,Win32,59.88023952,,,,,,,,182.215,182.4777,182.4778,184.478,practice1,j,1,0,22,22,2,1,1,top_right,neutral,friendly,0.8409,,,,,,,,,,,,,,,,,
,,,,,438778,f,y,r,n,14,0,2025-04-03_14h12.11.190,VisualSearchFaces,2024.2.4,Win32,59.88023952,,,,,,,,185.4802,185.7448,185.7448,187.745,practice1,f,1,0,23,23,27,1,0,top_right,neutral,no_target,1.1481,,,,,,,,,,,,,,,,,
,,,,,438778,f,y,r,n,14,0,2025-04-03_14h12.11.190,VisualSearchFaces,2024.2.4,Win32,59.88023952,,,,,,,,188.7479,189.0118,189.012,191.0117,practice1,j,1,0,24,24,3,1,1,bottom_left,neutral,friendly,1.1208,,,,,,,,,,,,,,,,,
,,,,,438778,f,y,r,n,14,0,2025-04-03_14h12.11.190,VisualSearchFaces,2024.2.4,Win32,59.88023952,,,,,,,,192.0138,192.2784,192.2785,194.2785,practice1,f,1,0,25,25,24,1,0,bottom_right,neutral,no_target,0.6858,,,,,,,,,,,,,,,,,
,,,,,438778,f,y,r,n,14,0,2025-04-03_14h12.11.190,VisualSearchFaces,2024.2.4,Win32,59.88023952,,,,,,,,195.2814,195.5453,195.5453,197.5454,practice1,f,1,0,26,26,30,1,0,centre,friendly,no_target,0.6018,,,,,,,,,,,,,,,,,
,,,,,438778,f,y,r,n,14,0,2025-04-03_14h12.11.190,VisualSearchFaces,2024.2.4,Win32,59.88023952,,,,,,,,198.548,198.8121,198.8121,200.8123,practice1,j,1,0,27,27,9,1,1,bottom_right,neutral,threatening,0.8032,,,,,,,,,,,,,,,,,
,,,,,438778,f,y,r,n,14,0,2025-04-03_14h12.11.190,VisualSearchFaces,2024.2.4,Win32,59.88023952,,,,,,,,201.8163,202.0791,202.0792,204.0792,practice1,f,0,0,28,28,13,1,1,bottom_left,friendly,neutral,0.7459,,,,,,,,,,,,,,,,,
,,,,,438778,f,y,r,n,14,0,2025-04-03_14h12.11.190,VisualSearchFaces,2024.2.4,Win32,59.88023952,,,,,,,,205.0814,205.3459,205.346,207.346,practice1,f,1,0,29,29,34,1,0,bottom_right,friendly,no_target,0.7617,,,,,,,,,,,,,,,,,
,,,,,438778,f,y,r,n,14,0,2025-04-03_14h12.11.190,VisualSearchFaces,2024.2.4,Win32,59.88023952,,,,,,,,208.3492,208.6127,208.6127,210.613,practice1,f,1,0,30,30,21,1,0,top_left,neutral,no_target,0.3717,,,,,,,,,,,,,,,,,
,,,,,438778,f,y,r,n,14,0,2025-04-03_14h12.11.190,VisualSearchFaces,2024.2.4,Win32,59.88023952,,,,,,,,211.6159,211.8797,211.8797,213.8801,practice1,f,1,0,31,31,36,1,0,top_left,threatening,no_target,0.4022,,,,,,,,,,,,,,,,,
,,,,,438778,f,y,r,n,14,0,2025-04-03_14h12.11.190,VisualSearchFaces,2024.2.4,Win32,59.88023952,,,,,,,,214.8819,215.1466,215.1467,217.1471,practice1,f,1,0,32,32,33,1,0,bottom_left,friendly,no_target,0.3704,,,,,,,,,,,,,,,,,
,,,,,438778,f,y,r,n,14,0,2025-04-03_14h12.11.190,VisualSearchFaces,2024.2.4,Win32,59.88023952,,,,,,,,218.1496,218.3976,218.3977,220.397,practice1,j,1,0,33,33,14,1,1,bottom_right,friendly,neutral,0.4329,,,,,,,,,,,,,,,,,
,,,,,438778,f,y,r,n,14,0,2025-04-03_14h12.11.190,VisualSearchFaces,2024.2.4,Win32,59.88023952,,,,,,,,221.3996,221.664,221.664,223.6637,practice1,f,1,0,34,34,31,1,0,top_left,friendly,no_target,0.4335,,,,,,,,,,,,,,,,,
,,,,,438778,f,y,r,n,14,0,2025-04-03_14h12.11.190,VisualSearchFaces,2024.2.4,Win32,59.88023952,,,,,,,,224.6667,224.9312,224.9312,226.9306,practice1,j,1,0,35,35,4,1,1,bottom_right,neutral,friendly,0.3982,,,,,,,,,,,,,,,,,
,,,,,438778,f,y,r,n,14,0,2025-04-03_14h12.11.190,VisualSearchFaces,2024.2.4,Win32,59.88023952,,,,,,,,227.9334,228.1811,228.1811,230.181,practice1,j,1,0,36,36,0,1,1,centre,neutral,friendly,0.6198,,,,,,,,,,,,,,,,,
,,,,,438778,f,y,r,n,14,0,2025-04-03_14h12.11.190,VisualSearchFaces,2024.2.4,Win32,59.88023952,,,,,,,,231.1843,231.4478,231.4479,233.4481,practice1,f,1,0,37,37,26,1,0,top_left,neutral,no_target,0.3986,,,,,,,,,,,,,,,,,
,,,,,438778,f,y,r,n,14,0,2025-04-03_14h12.11.190,VisualSearchFaces,2024.2.4,Win32,59.88023952,,,,,,,,234.4503,234.6981,234.6981,236.6981,practice1,f,1,0,38,38,25,1,0,centre,neutral,no_target,0.2617,,,,,,,,,,,,,,,,,
,,,,,438778,f,y,r,n,14,0,2025-04-03_14h12.11.190,VisualSearchFaces,2024.2.4,Win32,59.88023952,,,,,,,,237.7008,237.9649,237.9649,239.965,practice1,j,1,0,39,39,16,1,1,top_left,threatening,neutral,0.6677,,,,,,,,,,,,,,,,,
,,,,,438778,f,y,r,n,14,0,2025-04-03_14h12.11.190,VisualSearchFaces,2024.2.4,Win32,59.88023952,,,250.672,266.6168,space,15.9153,,267.6199,267.7335,267.7336,269.7337,practice2,j,1,0,0,0,13,1,1,bottom_left,friendly,neutral,0.9672,,239.9657,250.6658,space,10.6749,,,,,,,,,,,,
,,,,,438778,f,y,r,n,14,0,2025-04-03_14h12.11.190,VisualSearchFaces,2024.2.4,Win32,59.88023952,,,,,,,,270.7351,270.8338,270.8338,272.8341,practice2,j,1,0,1,1,16,1,1,top_left,threatening,neutral,0.5904,,,,,,,,,,,,,,,,,
,,,,,438778,f,y,r,n,14,0,2025-04-03_14h12.11.190,VisualSearchFaces,2024.2.4,Win32,59.88023952,,,,,,,,273.8368,273.9506,273.9506,275.9508,practice2,f,1,0,2,2,28,1,0,bottom_left,neutral,no_target,0.4247,,,,,,,,,,,,,,,,,
,,,,,438778,f,y,r,n,14,0,2025-04-03_14h12.11.190,VisualSearchFaces,2024.2.4,Win32,59.88023952,,,,,,,,276.9527,277.051,277.051,279.0509,practice2,j,1,0,3,3,14,1,1,bottom_right,friendly,neutral,0.5549,,,,,,,,,,,,,,,,,
,,,,,438778,f,y,r,n,14,0,2025-04-03_14h12.11.190,VisualSearchFaces,2024.2.4,Win32,59.88023952,,,,,,,,280.0533,280.1675,280.1676,282.1676,practice2,j,1,0,4,4,7,1,1,top_right,neutral,threatening,0.49,,,,,,,,,,,,,,,,,
,,,,,438778,f,y,r,n,14,0,2025-04-03_14h12.11.190,VisualSearchFaces,2024.2.4,Win32,59.88023952,,,,,,,,283.1705,283.285,283.285,285.2846,practice2,f,1,0,5,5,36,1,0,top_left,threatening,no_target,0.8048,,,,,,,,,,,,,,,,,
,,,,,438778,f,y,r,n,14,0,2025-04-03_14h12.11.190,VisualSearchFaces,2024.2.4,Win32,59.88023952,,,,,,,,286.2865,286.4015,286.4016,288.4016,practice2,f,1,0,6,6,35,1,0,centre,threatening,no_target,0.9072,,,,,,,,,,,,,,,,,
,,,,,438778,f,y,r,n,14,0,2025-04-03_14h12.11.190,VisualSearchFaces,2024.2.4,Win32,59.88023952,,,,,,,,289.4037,289.5181,289.5182,291.5185,practice2,f,1,0,7,7,33,1,0,bottom_left,friendly,no_target,0.6176,,,,,,,,,,,,,,,,,
,,,,,438778,f,y,r,n,14,0,2025-04-03_14h12.11.190,VisualSearchFaces,2024.2.4,Win32,59.88023952,,,,,,,,292.5211,292.6351,292.6352,294.6352,practice2,f,1,0,8,8,27,1,0,top_right,neutral,no_target,0.4695,,,,,,,,,,,,,,,,,
,,,,,438778,f,y,r,n,14,0,2025-04-03_14h12.11.190,VisualSearchFaces,2024.2.4,Win32,59.88023952,,,,,,,,295.6376,295.7519,295.752,297.752,practice2,j,1,0,9,9,15,1,1,centre,threatening,neutral,0.6484,,,,,,,,,,,,,,,,,
,,,,,438778,f,y,r,n,14,0,2025-04-03_14h12.11.190,VisualSearchFaces,2024.2.4,Win32,59.88023952,,,,,,,,298.7546,298.869,298.869,300.8692,practice2,j,1,0,10,10,4,1,1,bottom_right,neutral,friendly,0.6338,,,,,,,,,,,,,,,,,
,,,,,438778,f,y,r,n,14,0,2025-04-03_14h12.11.190,VisualSearchFaces,2024.2.4,Win32,59.88023952,,,,,,,,301.8716,301.9859,301.9859,303.986,practice2,j,1,0,11,11,5,1,1,centre,neutral,threatening,0.4857,,,,,,,,,,,,,,,,,
,,,,,438778,f,y,r,n,14,0,2025-04-03_14h12.11.190,VisualSearchFaces,2024.2.4,Win32,59.88023952,,,,,,,,304.9888,305.1026,305.1026,307.1027,practice2,j,1,0,12,12,2,1,1,top_right,neutral,friendly,0.4029,,,,,,,,,,,,,,,,,
,,,,,438778,f,y,r,n,14,0,2025-04-03_14h12.11.190,VisualSearchFaces,2024.2.4,Win32,59.88023952,,,,,,,,308.1045,308.22,308.2201,310.22,practice2,j,1,0,13,13,9,1,1,bottom_right,neutral,threatening,0.4366,,,,,,,,,,,,,,,,,
,,,,,438778,f,y,r,n,14,0,2025-04-03_14h12.11.190,VisualSearchFaces,2024.2.4,Win32,59.88023952,,,,,,,,311.2223,311.3364,311.3364,313.3368,practice2,f,1,0,14,14,38,1,0,bottom_left,threatening,no_target,1.0865,,,,,,,,,,,,,,,,,
,,,,,438778,f,y,r,n,14,0,2025-04-03_14h12.11.190,VisualSearchFaces,2024.2.4,Win32,59.88023952,,,,,,,,314.3385,314.4532,314.4533,316.4534,practice2,f,1,0,15,15,23,1,0,bottom_left,neutral,no_target,0.4938,,,,,,,,,,,,,,,,,
,,,,,438778,f,y,r,n,14,0,2025-04-03_14h12.11.190,VisualSearchFaces,2024.2.4,Win32,59.88023952,,,,,,,,317.4554,317.5703,317.5704,319.5706,practice2,f,1,0,16,16,37,1,0,top_right,threatening,no_target,0.5334,,,,,,,,,,,,,,,,,
,,,,,438778,f,y,r,n,14,0,2025-04-03_14h12.11.190,VisualSearchFaces,2024.2.4,Win32,59.88023952,,,,,,,,320.5727,320.6872,320.6872,322.6873,practice2,j,1,0,17,17,3,1,1,bottom_left,neutral,friendly,0.6014,,,,,,,,,,,,,,,,,
,,,,,438778,f,y,r,n,14,0,2025-04-03_14h12.11.190,VisualSearchFaces,2024.2.4,Win32,59.88023952,,,,,,,,323.6891,323.804,323.804,325.8042,practice2,f,1,0,18,18,21,1,0,top_left,neutral,no_target,0.5035,,,,,,,,,,,,,,,,,
,,,,,438778,f,y,r,n,14,0,2025-04-03_14h12.11.190,VisualSearchFaces,2024.2.4,Win32,59.88023952,,,,,,,,326.8064,326.9209,326.9209,328.9208,practice2,j,1,0,19,19,6,1,1,top_left,neutral,threatening,0.5569,,,,,,,,,,,,,,,,,
,,,,,438778,f,y,r,n,14,0,2025-04-03_14h12.11.190,VisualSearchFaces,2024.2.4,Win32,59.88023952,,,,,,,,329.9235,330.0377,330.0378,332.0378,practice2,f,1,0,20,20,34,1,0,bottom_right,friendly,no_target,0.5749,,,,,,,,,,,,,,,,,
,,,,,438778,f,y,r,n,14,0,2025-04-03_14h12.11.190,VisualSearchFaces,2024.2.4,Win32,59.88023952,,,,,,,,333.0407,333.1546,333.1547,335.1548,practice2,f,0,0,21,21,19,1,1,bottom_right,threatening,neutral,1.0675,,,,,,,,,,,,,,,,,
,,,,,438778,f,y,r,n,14,0,2025-04-03_14h12.11.190,VisualSearchFaces,2024.2.4,Win32,59.88023952,,,,,,,,336.1569,336.2716,336.2716,338.2716,practice2,f,1,0,22,22,20,1,0,centre,neutral,no_target,0.5171,,,,,,,,,,,,,,,,,
,,,,,438778,f,y,r,n,14,0,2025-04-03_14h12.11.190,VisualSearchFaces,2024.2.4,Win32,59.88023952,,,,,,,,339.2729,339.3717,339.3718,341.3717,practice2,j,1,0,23,23,1,1,1,top_left,neutral,friendly,0.4138,,,,,,,,,,,,,,,,,
,,,,,438778,f,y,r,n,14,0,2025-04-03_14h12.11.190,VisualSearchFaces,2024.2.4,Win32,59.88023952,,,,,,,,342.3739,342.4885,342.4885,344.4886,practice2,f,1,0,24,24,32,1,0,top_right,friendly,no_target,0.6838,,,,,,,,,,,,,,,,,
,,,,,438778,f,y,r,n,14,0,2025-04-03_14h12.11.190,VisualSearchFaces,2024.2.4,Win32,59.88023952,,,,,,,,345.4907,345.6053,345.6054,347.6056,practice2,j,1,0,25,25,12,1,1,top_right,friendly,neutral,0.4408,,,,,,,,,,,,,,,,,
,,,,,438778,f,y,r,n,14,0,2025-04-03_14h12.11.190,VisualSearchFaces,2024.2.4,Win32,59.88023952,,,,,,,,348.6075,348.7222,348.7222,350.7222,practice2,f,1,0,26,26,25,1,0,centre,neutral,no_target,0.5393,,,,,,,,,,,,,,,,,
,,,,,438778,f,y,r,n,14,0,2025-04-03_14h12.11.190,VisualSearchFaces,2024.2.4,Win32,59.88023952,,,,,,,,351.7247,351.8391,351.8391,353.8397,practice2,j,1,0,27,27,11,1,1,top_left,friendly,neutral,0.6865,,,,,,,,,,,,,,,,,
,,,,,438778,f,y,r,n,14,0,2025-04-03_14h12.11.190,VisualSearchFaces,2024.2.4,Win32,59.88023952,,,,,,,,354.842,354.956,354.9561,356.956,practice2,f,1,0,28,28,29,1,0,bottom_right,neutral,no_target,0.5585,,,,,,,,,,,,,,,,,
,,,,,438778,f,y,r,n,14,0,2025-04-03_14h12.11.190,VisualSearchFaces,2024.2.4,Win32,59.88023952,,,,,,,,357.9582,358.0729,358.073,360.073,practice2,j,1,0,29,29,8,1,1,bottom_left,neutral,threatening,0.4721,,,,,,,,,,,,,,,,,
,,,,,438778,f,y,r,n,14,0,2025-04-03_14h12.11.190,VisualSearchFaces,2024.2.4,Win32,59.88023952,,,,,,,,361.0754,361.1899,361.1899,363.19,practice2,f,1,0,30,30,22,1,0,top_right,neutral,no_target,0.5037,,,,,,,,,,,,,,,,,
,,,,,438778,f,y,r,n,14,0,2025-04-03_14h12.11.190,VisualSearchFaces,2024.2.4,Win32,59.88023952,,,,,,,,364.1922,364.3066,364.3066,366.3067,practice2,f,1,0,31,31,31,1,0,top_left,friendly,no_target,1.1948,,,,,,,,,,,,,,,,,
,,,,,438778,f,y,r,n,14,0,2025-04-03_14h12.11.190,VisualSearchFaces,2024.2.4,Win32,59.88023952,,,,,,,,367.3087,367.407,367.4071,369.4071,practice2,j,1,0,32,32,18,1,1,bottom_left,threatening,neutral,0.5922,,,,,,,,,,,,,,,,,
,,,,,438778,f,y,r,n,14,0,2025-04-03_14h12.11.190,VisualSearchFaces,2024.2.4,Win32,59.88023952,,,,,,,,370.4105,370.5237,370.5237,372.5238,practice2,j,1,0,33,33,10,1,1,centre,friendly,neutral,0.9173,,,,,,,,,,,,,,,,,
,,,,,438778,f,y,r,n,14,0,2025-04-03_14h12.11.190,VisualSearchFaces,2024.2.4,Win32,59.88023952,,,,,,,,373.5255,373.6241,373.6241,375.6242,practice2,f,1,0,34,34,26,1,0,top_left,neutral,no_target,0.4655,,,,,,,,,,,,,,,,,
,,,,,438778,f,y,r,n,14,0,2025-04-03_14h12.11.190,VisualSearchFaces,2024.2.4,Win32,59.88023952,,,,,,,,376.6266,376.741,376.7411,378.741,practice2,f,1,0,35,35,39,1,0,bottom_right,threatening,no_target,0.5407,,,,,,,,,,,,,,,,,
,,,,,438778,f,y,r,n,14,0,2025-04-03_14h12.11.190,VisualSearchFaces,2024.2.4,Win32,59.88023952,,,,,,,,379.7442,379.8579,379.8579,381.8578,practice2,f,1,0,36,36,24,1,0,bottom_right,neutral,no_target,0.4578,,,,,,,,,,,,,,,,,
,,,,,438778,f,y,r,n,14,0,2025-04-03_14h12.11.190,VisualSearchFaces,2024.2.4,Win32,59.88023952,,,,,,,,382.8607,382.9746,382.9746,384.9752,practice2,j,1,0,37,37,17,1,1,top_right,threatening,neutral,0.5335,,,,,,,,,,,,,,,,,
,,,,,438778,f,y,r,n,14,0,2025-04-03_14h12.11.190,VisualSearchFaces,2024.2.4,Win32,59.88023952,,,,,,,,385.9771,386.0914,386.0916,388.0916,practice2,j,1,0,38,38,0,1,1,centre,neutral,friendly,0.6175,,,,,,,,,,,,,,,,,
,,,,,438778,f,y,r,n,14,0,2025-04-03_14h12.11.190,VisualSearchFaces,2024.2.4,Win32,59.88023952,,,,,,,,389.0936,389.2085,389.2085,391.2085,practice2,f,1,0,39,39,30,1,0,centre,friendly,no_target,0.7116,,,,,,,,,,,,,,,,,
,,,,,438778,f,y,r,n,14,0,2025-04-03_14h12.11.190,VisualSearchFaces,2024.2.4,Win32,59.88023952,,,399.129,432.4781,space,33.3257,,433.4809,433.5947,433.5947,435.5946,block1,j,1,0,0,0,1,1,1,top_left,neutral,friendly,0.6229,,391.2107,399.126,space,7.8851,,,,,,,,,,,,
,,,,,438778,f,y,r,n,14,0,2025-04-03_14h12.11.190,VisualSearchFaces,2024.2.4,Win32,59.88023952,,,,,,,,436.5973,436.7069,436.707,438.6954,block1,j,1,0,1,1,12,1,1,top_right,friendly,neutral,0.4752,,,,,,,,,,,,,,,,,
,,,,,438778,f,y,r,n,14,0,2025-04-03_14h12.11.190,VisualSearchFaces,2024.2.4,Win32,59.88023952,,,,,,,,439.6973,439.8118,439.812,441.8119,block1,f,1,0,2,2,38,1,0,bottom_left,threatening,no_target,0.7006,,,,,,,,,,,,,,,,,
,,,,,438778,f,y,r,n,14,0,2025-04-03_14h12.11.190,VisualSearchFaces,2024.2.4,Win32,59.88023952,,,,,,,,442.8151,442.9287,442.9287,444.9288,block1,f,1,0,3,3,34,1,0,bottom_right,friendly,no_target,0.5077,,,,,,,,,,,,,,,,,
,,,,,438778,f,y,r,n,14,0,2025-04-03_14h12.11.190,VisualSearchFaces,2024.2.4,Win32,59.88023952,,,,,,,,445.9316,446.0456,446.0456,448.0456,block1,j,1,0,4,4,7,1,1,top_right,neutral,threatening,0.4262,,,,,,,,,,,,,,,,,
,,,,,438778,f,y,r,n,14,0,2025-04-03_14h12.11.190,VisualSearchFaces,2024.2.4,Win32,59.88023952,,,,,,,,449.0476,449.1626,449.1626,451.1628,block1,f,1,0,5,5,24,1,0,bottom_right,neutral,no_target,0.3901,,,,,,,,,,,,,,,,,
,,,,,438778,f,y,r,n,14,0,2025-04-03_14h12.11.190,VisualSearchFaces,2024.2.4,Win32,59.88023952,,,,,,,,452.1648,452.2795,452.2795,454.2795,block1,j,1,0,6,6,17,1,1,top_right,threatening,neutral,0.5371,,,,,,,,,,,,,,,,,
,,,,,438778,f,y,r,n,14,0,2025-04-03_14h12.11.190,VisualSearchFaces,2024.2.4,Win32,59.88023952,,,,,,,,455.2811,455.3962,455.3962,457.3964,block1,f,1,0,7,7,30,1,0,centre,friendly,no_target,0.4025,,,,,,,,,,,,,,,,,
,,,,,438778,f,y,r,n,14,0,2025-04-03_14h12.11.190,VisualSearchFaces,2024.2.4,Win32,59.88023952,,,,,,,,458.3993,458.513,458.513,460.5132,block1,j,1,0,8,8,4,1,1,bottom_right,neutral,friendly,0.6601,,,,,,,,,,,,,,,,,
,,,,,438778,f,y,r,n,14,0,2025-04-03_14h12.11.190,VisualSearchFaces,2024.2.4,Win32,59.88023952,,,,,,,,461.5154,461.6303,461.6303,463.63,block1,j,1,0,9,9,11,1,1,top_left,friendly,neutral,0.501,,,,,,,,,,,,,,,,,
,,,,,438778,f,y,r,n,14,0,2025-04-03_14h12.11.190,VisualSearchFaces,2024.2.4,Win32,59.88023952,,,,,,,,464.6328,464.7681,464.7681,466.7635,block1,f,1,0,10,10,39,1,0,bottom_right,threatening,no_target,0.7255,,,,,,,,,,,,,,,,,
,,,,,438778,f,y,r,n,14,0,2025-04-03_14h12.11.190,VisualSearchFaces,2024.2.4,Win32,59.88023952,,,,,,,,467.7657,467.8803,467.8804,469.8805,block1,f,1,0,11,11,26,1,0,top_left,neutral,no_target,0.7446,,,,,,,,,,,,,,,,,
,,,,,438778,f,y,r,n,14,0,2025-04-03_14h12.11.190,VisualSearchFaces,2024.2.4,Win32,59.88023952,,,,,,,,470.8824,470.9974,470.9974,472.9976,block1,f,1,0,12,12,27,1,0,top_right,neutral,no_target,0.4165,,,,,,,,,,,,,,,,,
,,,,,438778,f,y,r,n,14,0,2025-04-03_14h12.11.190,VisualSearchFaces,2024.2.4,Win32,59.88023952,,,,,,,,473.9995,474.1141,474.1141,476.1142,block1,f,1,0,13,13,23,1,0,bottom_left,neutral,no_target,0.3843,,,,,,,,,,,,,,,,,
,,,,,438778,f,y,r,n,14,0,2025-04-03_14h12.11.190,VisualSearchFaces,2024.2.4,Win32,59.88023952,,,,,,,,477.1167,477.2145,477.2145,479.2145,block1,j,1,0,14,14,16,1,1,top_left,threatening,neutral,0.4361,,,,,,,,,,,,,,,,,
,,,,,438778,f,y,r,n,14,0,2025-04-03_14h12.11.190,VisualSearchFaces,2024.2.4,Win32,59.88023952,,,,,,,,480.2169,480.3313,480.3313,482.3318,block1,f,1,0,15,15,20,1,0,centre,neutral,no_target,0.5914,,,,,,,,,,,,,,,,,
,,,,,438778,f,y,r,n,14,0,2025-04-03_14h12.11.190,VisualSearchFaces,2024.2.4,Win32,59.88023952,,,,,,,,483.3332,483.432,483.4321,485.4318,block1,f,1,0,16,16,33,1,0,bottom_left,friendly,no_target,0.5321,,,,,,,,,,,,,,,,,
,,,,,438778,f,y,r,n,14,0,2025-04-03_14h12.11.190,VisualSearchFaces,2024.2.4,Win32,59.88023952,,,,,,,,486.434,486.5323,486.5324,488.532,block1,f,1,0,17,17,31,1,0,top_left,friendly,no_target,0.4669,,,,,,,,,,,,,,,,,
,,,,,438778,f,y,r,n,14,0,2025-04-03_14h12.11.190,VisualSearchFaces,2024.2.4,Win32,59.88023952,,,,,,,,489.5398,489.6486,489.6487,491.6487,block1,j,1,0,18,18,19,1,1,bottom_right,threatening,neutral,0.5879,,,,,,,,,,,,,,,,,
,,,,,438778,f,y,r,n,14,0,2025-04-03_14h12.11.190,VisualSearchFaces,2024.2.4,Win32,59.88023952,,,,,,,,492.6505,492.7599,492.7599,494.7491,block1,j,1,0,19,19,0,1,1,centre,neutral,friendly,0.5415,,,,,,,,,,,,,,,,,
,,,,,438778,f,y,r,n,14,0,2025-04-03_14h12.11.190,VisualSearchFaces,2024.2.4,Win32,59.88023952,,,,,,,,495.7512,495.8659,495.866,497.866,block1,j,1,0,20,20,2,1,1,top_right,neutral,friendly,0.4181,,,,,,,,,,,,,,,,,
,,,,,438778,f,y,r,n,14,0,2025-04-03_14h12.11.190,VisualSearchFaces,2024.2.4,Win32,59.88023952,,,,,,,,498.8697,498.9833,498.9834,500.983,block1,j,1,0,21,21,6,1,1,top_left,neutral,threatening,0.4473,,,,,,,,,,,,,,,,,
,,,,,438778,f,y,r,n,14,0,2025-04-03_14h12.11.190,VisualSearchFaces,2024.2.4,Win32,59.88023952,,,,,,,,501.9864,502.0997,502.0997,504.0998,block1,f,1,0,22,22,21,1,0,top_left,neutral,no_target,0.4512,,,,,,,,,,,,,,,,,
,,,,,438778,f,y,r,n,14,0,2025-04-03_14h12.11.190,VisualSearchFaces,2024.2.4,Win32,59.88023952,,,,,,,,505.1015,505.2164,505.2164,507.2165,block1,f,0,0,23,23,13,1,1,bottom_left,friendly,neutral,1.3918,,,,,,,,,,,,,,,,,
,,,,,438778,f,y,r,n,14,0,2025-04-03_14h12.11.190,VisualSearchFaces,2024.2.4,Win32,59.88023952,,,,,,,,508.2183,508.333,508.333,510.3333,block1,f,1,0,24,24,22,1,0,top_right,neutral,no_target,0.4708,,,,,,,,,,,,,,,,,
,,,,,438778,f,y,r,n,14,0,2025-04-03_14h12.11.190,VisualSearchFaces,2024.2.4,Win32,59.88023952,,,,,,,,511.3355,511.45,511.4501,513.4501,block1,j,1,0,25,25,10,1,1,centre,friendly,neutral,0.5009,,,,,,,,,,,,,,,,,
,,,,,438778,f,y,r,n,14,0,2025-04-03_14h12.11.190,VisualSearchFaces,2024.2.4,Win32,59.88023952,,,,,,,,514.4529,514.5502,514.5504,516.5502,block1,f,1,0,26,26,32,1,0,top_right,friendly,no_target,0.5107,,,,,,,,,,,,,,,,,
,,,,,438778,f,y,r,n,14,0,2025-04-03_14h12.11.190,VisualSearchFaces,2024.2.4,Win32,59.88023952,,,,,,,,517.5523,517.6506,517.6507,519.6505,block1,f,1,0,27,27,28,1,0,bottom_left,neutral,no_target,0.484,,,,,,,,,,,,,,,,,
,,,,,438778,f,y,r,n,14,0,2025-04-03_14h12.11.190,VisualSearchFaces,2024.2.4,Win32,59.88023952,,,,,,,,520.653,520.7672,520.7672,522.7673,block1,f,1,0,28,28,25,1,0,centre,neutral,no_target,0.3431,,,,,,,,,,,,,,,,,
,,,,,438778,f,y,r,n,14,0,2025-04-03_14h12.11.190,VisualSearchFaces,2024.2.4,Win32,59.88023952,,,,,,,,523.7706,523.8676,523.8677,525.8675,block1,f,1,0,29,29,37,1,0,top_right,threatening,no_target,0.4846,,,,,,,,,,,,,,,,,
,,,,,438778,f,y,r,n,14,0,2025-04-03_14h12.11.190,VisualSearchFaces,2024.2.4,Win32,59.88023952,,,,,,,,526.871,526.9845,526.9846,528.9845,block1,f,1,0,30,30,35,1,0,centre,threatening,no_target,0.6201,,,,,,,,,,,,,,,,,
,,,,,438778,f,y,r,n,14,0,2025-04-03_14h12.11.190,VisualSearchFaces,2024.2.4,Win32,59.88023952,,,,,,,,529.9871,530.1014,530.1014,532.1016,block1,j,1,0,31,31,9,1,1,bottom_right,neutral,threatening,0.467,,,,,,,,,,,,,,,,,
,,,,,438778,f,y,r,n,14,0,2025-04-03_14h12.11.190,VisualSearchFaces,2024.2.4,Win32,59.88023952,,,,,,,,533.1032,533.2181,533.2181,535.2183,block1,j,1,0,32,32,18,1,1,bottom_left,threatening,neutral,0.5147,,,,,,,,,,,,,,,,,
,,,,,438778,f,y,r,n,14,0,2025-04-03_14h12.11.190,VisualSearchFaces,2024.2.4,Win32,59.88023952,,,,,,,,536.2206,536.3351,536.3351,538.3351,block1,j,1,0,33,33,3,1,1,bottom_left,neutral,friendly,0.3753,,,,,,,,,,,,,,,,,
,,,,,438778,f,y,r,n,14,0,2025-04-03_14h12.11.190,VisualSearchFaces,2024.2.4,Win32,59.88023952,,,,,,,,539.3372,539.452,539.452,541.452,block1,f,1,0,34,34,36,1,0,top_left,threatening,no_target,0.5703,,,,,,,,,,,,,,,,,
,,,,,438778,f,y,r,n,14,0,2025-04-03_14h12.11.190,VisualSearchFaces,2024.2.4,Win32,59.88023952,,,,,,,,542.4534,542.5525,542.5525,544.5526,block1,f,1,0,35,35,29,1,0,bottom_right,neutral,no_target,0.4922,,,,,,,,,,,,,,,,,
,,,,,438778,f,y,r,n,14,0,2025-04-03_14h12.11.190,VisualSearchFaces,2024.2.4,Win32,59.88023952,,,,,,,,545.5555,545.6689,545.6691,547.669,block1,j,1,0,36,36,14,1,1,bottom_right,friendly,neutral,0.4575,,,,,,,,,,,,,,,,,
,,,,,438778,f,y,r,n,14,0,2025-04-03_14h12.11.190,VisualSearchFaces,2024.2.4,Win32,59.88023952,,,,,,,,548.6714,548.7859,548.7859,550.7859,block1,f,0,0,37,37,8,1,1,bottom_left,neutral,threatening,0.3665,,,,,,,,,,,,,,,,,
,,,,,438778,f,y,r,n,14,0,2025-04-03_14h12.11.190,VisualSearchFaces,2024.2.4,Win32,59.88023952,,,,,,,,551.7879,551.9027,551.9027,553.903,block1,j,1,0,38,38,15,1,1,centre,threatening,neutral,0.7123,,,,,,,,,,,,,,,,,
,,,,,438778,f,y,r,n,14,0,2025-04-03_14h12.11.190,VisualSearchFaces,2024.2.4,Win32,59.88023952,,,,,,,,554.9041,555.003,555.003,557.0034,block1,j,1,0,39,39,5,1,1,centre,neutral,threatening,0.6446,,,,,,,,,,,,,,,,,
,,,,,438778,f,y,r,n,14,0,2025-04-03_14h12.11.190,VisualSearchFaces,2024.2.4,Win32,59.88023952,,,,,,,,558.0062,558.12,558.1201,560.1199,block1,f,1,1,0,40,24,1,0,bottom_right,neutral,no_target,0.375,,,,,,,,,,,,,,,,,
,,,,,438778,f,y,r,n,14,0,2025-04-03_14h12.11.190,VisualSearchFaces,2024.2.4,Win32,59.88023952,,,,,,,,561.1222,561.2369,561.237,563.2369,block1,f,1,1,1,41,21,1,0,top_left,neutral,no_target,0.544,,,,,,,,,,,,,,,,,
,,,,,438778,f,y,r,n,14,0,2025-04-03_14h12.11.190,VisualSearchFaces,2024.2.4,Win32,59.88023952,,,,,,,,564.2388,564.3537,564.3537,566.3537,block1,j,1,1,2,42,1,1,1,top_left,neutral,friendly,0.4925,,,,,,,,,,,,,,,,,
,,,,,438778,f,y,r,n,14,0,2025-04-03_14h12.11.190,VisualSearchFaces,2024.2.4,Win32,59.88023952,,,,,,,,567.355,567.4539,567.454,569.4539,block1,f,1,1,3,43,33,1,0,bottom_left,friendly,no_target,0.5563,,,,,,,,,,,,,,,,,
,,,,,438778,f,y,r,n,14,0,2025-04-03_14h12.11.190,VisualSearchFaces,2024.2.4,Win32,59.88023952,,,,,,,,570.456,570.5708,570.5708,572.5708,block1,j,1,1,4,44,2,1,1,top_right,neutral,friendly,0.4615,,,,,,,,,,,,,,,,,
,,,,,438778,f,y,r,n,14,0,2025-04-03_14h12.11.190,VisualSearchFaces,2024.2.4,Win32,59.88023952,,,,,,,,573.5738,573.6874,573.6875,575.6875,block1,f,1,1,5,45,39,1,0,bottom_right,threatening,no_target,0.6267,,,,,,,,,,,,,,,,,
,,,,,438778,f,y,r,n,14,0,2025-04-03_14h12.11.190,VisualSearchFaces,2024.2.4,Win32,59.88023952,,,,,,,,576.689,576.7879,576.7879,578.7879,block1,f,1,1,6,46,31,1,0,top_left,friendly,no_target,0.5947,,,,,,,,,,,,,,,,,
,,,,,438778,f,y,r,n,14,0,2025-04-03_14h12.11.190,VisualSearchFaces,2024.2.4,Win32,59.88023952,,,,,,,,579.79,579.9045,579.9045,581.9047,block1,j,1,1,7,47,16,1,1,top_left,threatening,neutral,0.6702,,,,,,,,,,,,,,,,,
,,,,,438778,f,y,r,n,14,0,2025-04-03_14h12.11.190,VisualSearchFaces,2024.2.4,Win32,59.88023952,,,,,,,,582.9067,583.0215,583.0215,585.0216,block1,f,1,1,8,48,38,1,0,bottom_left,threatening,no_target,0.5734,,,,,,,,,,,,,,,,,
,,,,,438778,f,y,r,n,14,0,2025-04-03_14h12.11.190,VisualSearchFaces,2024.2.4,Win32,59.88023952,,,,,,,,586.0235,586.1384,586.1385,588.1384,block1,f,1,1,9,49,25,1,0,centre,neutral,no_target,0.4277,,,,,,,,,,,,,,,,,
,,,,,438778,f,y,r,n,14,0,2025-04-03_14h12.11.190,VisualSearchFaces,2024.2.4,Win32,59.88023952,,,,,,,,589.14,589.2552,589.2552,591.2553,block1,f,1,1,10,50,22,1,0,top_right,neutral,no_target,0.4752,,,,,,,,,,,,,,,,,
,,,,,438778,f,y,r,n,14,0,2025-04-03_14h12.11.190,VisualSearchFaces,2024.2.4,Win32,59.88023952,,,,,,,,592.2579,592.3721,592.3722,594.3725,block1,f,1,1,11,51,32,1,0,top_right,friendly,no_target,0.6555,,,,,,,,,,,,,,,,,
,,,,,438778,f,y,r,n,14,0,2025-04-03_14h12.11.190,VisualSearchFaces,2024.2.4,Win32,59.88023952,,,,,,,,595.3743,595.4889,595.489,597.4891,block1,j,1,1,12,52,14,1,1,bottom_right,friendly,neutral,0.4386,,,,,,,,,,,,,,,,,
,,,,,438778,f,y,r,n,14,0,2025-04-03_14h12.11.190,VisualSearchFaces,2024.2.4,Win32,59.88023952,,,,,,,,598.4922,598.6059,598.6059,600.6059,block1,f,1,1,13,53,36,1,0,top_left,threatening,no_target,0.5526,,,,,,,,,,,,,,,,,
,,,,,438778,f,y,r,n,14,0,2025-04-03_14h12.11.190,VisualSearchFaces,2024.2.4,Win32,59.88023952,,,,,,,,601.6092,601.7229,601.7229,603.7229,block1,j,1,1,14,54,11,1,1,top_left,friendly,neutral,0.8695,,,,,,,,,,,,,,,,,
,,,,,438778,f,y,r,n,14,0,2025-04-03_14h12.11.190,VisualSearchFaces,2024.2.4,Win32,59.88023952,,,,,,,,604.7251,604.8396,604.8396,606.8398,block1,j,1,1,15,55,13,1,1,bottom_left,friendly,neutral,0.4255,,,,,,,,,,,,,,,,,
,,,,,438778,f,y,r,n,14,0,2025-04-03_14h12.11.190,VisualSearchFaces,2024.2.4,Win32,59.88023952,,,,,,,,607.8417,607.9566,607.9567,609.9566,block1,f,1,1,16,56,34,1,0,bottom_right,friendly,no_target,0.6075,,,,,,,,,,,,,,,,,
,,,,,438778,f,y,r,n,14,0,2025-04-03_14h12.11.190,VisualSearchFaces,2024.2.4,Win32,59.88023952,,,,,,,,610.9592,611.0733,611.0734,613.0735,block1,j,1,1,17,57,19,1,1,bottom_right,threatening,neutral,0.5433,,,,,,,,,,,,,,,,,
,,,,,438778,f,y,r,n,14,0,2025-04-03_14h12.11.190,VisualSearchFaces,2024.2.4,Win32,59.88023952,,,,,,,,614.0753,614.1902,614.1903,616.1904,block1,j,1,1,18,58,6,1,1,top_left,neutral,threatening,0.4361,,,,,,,,,,,,,,,,,
,,,,,438778,f,y,r,n,14,0,2025-04-03_14h12.11.190,VisualSearchFaces,2024.2.4,Win32,59.88023952,,,,,,,,617.1925,617.3072,617.3073,619.3072,block1,j,1,1,19,59,5,1,1,centre,neutral,threatening,0.4007,,,,,,,,,,,,,,,,,
,,,,,438778,f,y,r,n,14,0,2025-04-03_14h12.11.190,VisualSearchFaces,2024.2.4,Win32,59.88023952,,,,,,,,620.3088,620.4239,620.424,622.4241,block1,j,1,1,20,60,9,1,1,bottom_right,neutral,threatening,0.3547,,,,,,,,,,,,,,,,,
,,,,,438778,f,y,r,n,14,0,2025-04-03_14h12.11.190,VisualSearchFaces,2024.2.4,Win32,59.88023952,,,,,,,,623.4261,623.5412,623.5412,625.541,block1,j,1,1,21,61,7,1,1,top_right,neutral,threatening,0.3301,,,,,,,,,,,,,,,,,
,,,,,438778,f,y,r,n,14,0,2025-04-03_14h12.11.190,VisualSearchFaces,2024.2.4,Win32,59.88023952,,,,,,,,626.5439,626.6578,626.6579,628.6579,block1,j,1,1,22,62,0,1,1,centre,neutral,friendly,0.327,,,,,,,,,,,,,,,,,
,,,,,438778,f,y,r,n,14,0,2025-04-03_14h12.11.190,VisualSearchFaces,2024.2.4,Win32,59.88023952,,,,,,,,629.6601,629.7747,629.7748,631.7749,block1,f,1,1,23,63,29,1,0,bottom_right,neutral,no_target,0.4823,,,,,,,,,,,,,,,,,
,,,,,438778,f,y,r,n,14,0,2025-04-03_14h12.11.190,VisualSearchFaces,2024.2.4,Win32,59.88023952,,,,,,,,632.7767,632.8916,632.8916,634.8915,block1,j,1,1,24,64,4,1,1,bottom_right,neutral,friendly,0.4498,,,,,,,,,,,,,,,,,
,,,,,438778,f,y,r,n,14,0,2025-04-03_14h12.11.190,VisualSearchFaces,2024.2.4,Win32,59.88023952,,,,,,,,635.8936,636.0082,636.0083,638.0083,block1,f,1,1,25,65,35,1,0,centre,threatening,no_target,0.5278,,,,,,,,,,,,,,,,,
,,,,,438778,f,y,r,n,14,0,2025-04-03_14h12.11.190,VisualSearchFaces,2024.2.4,Win32,59.88023952,,,,,,,,639.0113,639.1253,639.1253,641.1255,block1,f,1,1,26,66,23,1,0,bottom_left,neutral,no_target,0.4451,,,,,,,,,,,,,,,,,
,,,,,438778,f,y,r,n,14,0,2025-04-03_14h12.11.190,VisualSearchFaces,2024.2.4,Win32,59.88023952,,,,,,,,642.1277,642.2254,642.2254,644.2255,block1,j,1,1,27,67,17,1,1,top_right,threatening,neutral,0.5775,,,,,,,,,,,,,,,,,
,,,,,438778,f,y,r,n,14,0,2025-04-03_14h12.11.190,VisualSearchFaces,2024.2.4,Win32,59.88023952,,,,,,,,645.2277,645.3257,645.3258,647.3262,block1,f,1,1,28,68,27,1,0,top_right,neutral,no_target,0.5577,,,,,,,,,,,,,,,,,
,,,,,438778,f,y,r,n,14,0,2025-04-03_14h12.11.190,VisualSearchFaces,2024.2.4,Win32,59.88023952,,,,,,,,648.3287,648.4429,648.4429,650.4427,block1,f,1,1,29,69,28,1,0,bottom_left,neutral,no_target,0.5158,,,,,,,,,,,,,,,,,
,,,,,438778,f,y,r,n,14,0,2025-04-03_14h12.11.190,VisualSearchFaces,2024.2.4,Win32,59.88023952,,,,,,,,651.4452,651.5597,651.5597,653.5598,block1,j,1,1,30,70,10,1,1,centre,friendly,neutral,0.5484,,,,,,,,,,,,,,,,,
,,,,,438778,f,y,r,n,14,0,2025-04-03_14h12.11.190,VisualSearchFaces,2024.2.4,Win32,59.88023952,,,,,,,,654.5454,654.6598,654.6598,656.6598,block1,j,1,1,31,71,3,1,1,bottom_left,neutral,friendly,0.5579,,,,,,,,,,,,,,,,,
,,,,,438778,f,y,r,n,14,0,2025-04-03_14h12.11.190,VisualSearchFaces,2024.2.4,Win32,59.88023952,,,,,,,,657.6618,657.7766,657.7766,659.7767,block1,f,1,1,32,72,30,1,0,centre,friendly,no_target,0.6397,,,,,,,,,,,,,,,,,
,,,,,438778,f,y,r,n,14,0,2025-04-03_14h12.11.190,VisualSearchFaces,2024.2.4,Win32,59.88023952,,,,,,,,660.7784,660.8939,660.8939,662.8936,block1,f,1,1,33,73,20,1,0,centre,neutral,no_target,0.5096,,,,,,,,,,,,,,,,,
,,,,,438778,f,y,r,n,14,0,2025-04-03_14h12.11.190,VisualSearchFaces,2024.2.4,Win32,59.88023952,,,,,,,,663.8959,663.9938,663.9938,665.9938,block1,f,1,1,34,74,37,1,0,top_right,threatening,no_target,0.5922,,,,,,,,,,,,,,,,,
,,,,,438778,f,y,r,n,14,0,2025-04-03_14h12.11.190,VisualSearchFaces,2024.2.4,Win32,59.88023952,,,,,,,,666.9953,667.1105,667.1105,669.1107,block1,j,1,1,35,75,15,1,1,centre,threatening,neutral,0.5043,,,,,,,,,,,,,,,,,
,,,,,438778,f,y,r,n,14,0,2025-04-03_14h12.11.190,VisualSearchFaces,2024.2.4,Win32,59.88023952,,,,,,,,670.1133,670.2281,670.2281,672.2275,block1,j,1,1,36,76,18,1,1,bottom_left,threatening,neutral,0.457,,,,,,,,,,,,,,,,,
,,,,,438778,f,y,r,n,14,0,2025-04-03_14h12.11.190,VisualSearchFaces,2024.2.4,Win32,59.88023952,,,,,,,,673.229,673.328,673.3281,675.3279,block1,f,1,1,37,77,26,1,0,top_left,neutral,no_target,0.5123,,,,,,,,,,,,,,,,,
,,,,,438778,f,y,r,n,14,0,2025-04-03_14h12.11.190,VisualSearchFaces,2024.2.4,Win32,59.88023952,,,,,,,,676.3303,676.4445,676.4445,678.4447,block1,j,1,1,38,78,12,1,1,top_right,friendly,neutral,0.556,,,,,,,,,,,,,,,,,
,,,,,438778,f,y,r,n,14,0,2025-04-03_14h12.11.190,VisualSearchFaces,2024.2.4,Win32,59.88023952,,,,,,,,679.4466,679.5615,679.5615,681.5618,block1,j,1,1,39,79,8,1,1,bottom_left,neutral,threatening,0.4326,,,,,,,,,,,,,,,,,
,,,,,438778,f,y,r,n,14,0,2025-04-03_14h12.11.190,VisualSearchFaces,2024.2.4,Win32,59.88023952,,,693.616,713.2474,space,19.6025,,714.2488,714.3472,714.3472,716.3476,block2,f,1,0,0,0,35,1,0,centre,threatening,no_target,1.2935,,681.5636,693.6126,space,12.0232,,,,,,,,,,,,
,,,,,438778,f,y,r,n,14,0,2025-04-03_14h12.11.190,VisualSearchFaces,2024.2.4,Win32,59.88023952,,,,,,,,717.3489,717.4476,717.4476,719.4474,block2,f,1,0,1,1,22,1,0,top_right,neutral,no_target,0.4503,,,,,,,,,,,,,,,,,
,,,,,438778,f,y,r,n,14,0,2025-04-03_14h12.11.190,VisualSearchFaces,2024.2.4,Win32,59.88023952,,,,,,,,720.4491,720.5477,720.5477,722.5478,block2,f,1,0,2,2,27,1,0,top_right,neutral,no_target,0.4809,,,,,,,,,,,,,,,,,
,,,,,438778,f,y,r,n,14,0,2025-04-03_14h12.11.190,VisualSearchFaces,2024.2.4,Win32,59.88023952,,,,,,,,723.5494,723.6647,723.6647,725.6648,block2,f,1,0,3,3,33,1,0,bottom_left,friendly,no_target,0.3599,,,,,,,,,,,,,,,,,
,,,,,438778,f,y,r,n,14,0,2025-04-03_14h12.11.190,VisualSearchFaces,2024.2.4,Win32,59.88023952,,,,,,,,726.6668,726.7813,726.7814,728.7819,block2,j,1,0,4,4,6,1,1,top_left,neutral,threatening,0.3544,,,,,,,,,,,,,,,,,
,,,,,438778,f,y,r,n,14,0,2025-04-03_14h12.11.190,VisualSearchFaces,2024.2.4,Win32,59.88023952,,,,,,,,729.7838,729.8983,729.8983,731.8983,block2,j,1,0,5,5,3,1,1,bottom_left,neutral,friendly,0.4034,,,,,,,,,,,,,,,,,
,,,,,438778,f,y,r,n,14,0,2025-04-03_14h12.11.190,VisualSearchFaces,2024.2.4,Win32,59.88023952,,,,,,,,732.8994,732.9984,732.9984,734.9985,block2,j,1,0,6,6,2,1,1,top_right,neutral,friendly,0.3871,,,,,,,,,,,,,,,,,
,,,,,438778,f,y,r,n,14,0,2025-04-03_14h12.11.190,VisualSearchFaces,2024.2.4,Win32,59.88023952,,,,,,,,736.0005,736.1155,736.1155,738.1154,block2,f,1,0,7,7,25,1,0,centre,neutral,no_target,0.4797,,,,,,,,,,,,,,,,,
,,,,,438778,f,y,r,n,14,0,2025-04-03_14h12.11.190,VisualSearchFaces,2024.2.4,Win32,59.88023952,,,,,,,,739.1181,739.2319,739.232,741.2321,block2,f,1,0,8,8,21,1,0,top_left,neutral,no_target,0.3996,,,,,,,,,,,,,,,,,
,,,,,438778,f,y,r,n,14,0,2025-04-03_14h12.11.190,VisualSearchFaces,2024.2.4,Win32,59.88023952,,,,,,,,742.2343,742.3491,742.3491,744.3493,block2,j,1,0,9,9,13,1,1,bottom_left,friendly,neutral,0.5641,,,,,,,,,,,,,,,,,
,,,,,438778,f,y,r,n,14,0,2025-04-03_14h12.11.190,VisualSearchFaces,2024.2.4,Win32,59.88023952,,,,,,,,745.3514,745.4495,745.4495,747.4498,block2,f,1,0,10,10,32,1,0,top_right,friendly,no_target,0.6006,,,,,,,,,,,,,,,,,
,,,,,438778,f,y,r,n,14,0,2025-04-03_14h12.11.190,VisualSearchFaces,2024.2.4,Win32,59.88023952,,,,,,,,748.4512,748.566,748.5661,750.5662,block2,f,1,0,11,11,28,1,0,bottom_left,neutral,no_target,0.4038,,,,,,,,,,,,,,,,,
,,,,,438778,f,y,r,n,14,0,2025-04-03_14h12.11.190,VisualSearchFaces,2024.2.4,Win32,59.88023952,,,,,,,,751.5675,751.671,751.671,753.6668,block2,j,1,0,12,12,15,1,1,centre,threatening,neutral,0.5758,,,,,,,,,,,,,,,,,
,,,,,438778,f,y,r,n,14,0,2025-04-03_14h12.11.190,VisualSearchFaces,2024.2.4,Win32,59.88023952,,,,,,,,754.6684,754.7831,754.7832,756.7835,block2,j,1,0,13,13,1,1,1,top_left,neutral,friendly,0.5204,,,,,,,,,,,,,,,,,
,,,,,438778,f,y,r,n,14,0,2025-04-03_14h12.11.190,VisualSearchFaces,2024.2.4,Win32,59.88023952,,,,,,,,757.7852,757.8837,757.8837,759.8836,block2,j,1,0,14,14,4,1,1,bottom_right,neutral,friendly,0.5915,,,,,,,,,,,,,,,,,
,,,,,438778,f,y,r,n,14,0,2025-04-03_14h12.11.190,VisualSearchFaces,2024.2.4,Win32,59.88023952,,,,,,,,760.8861,761.0002,761.0002,763.0004,block2,f,1,0,15,15,26,1,0,top_left,neutral,no_target,0.4458,,,,,,,,,,,,,,,,,
,,,,,438778,f,y,r,n,14,0,2025-04-03_14h12.11.190,VisualSearchFaces,2024.2.4,Win32,59.88023952,,,,,,,,764.002,764.1007,764.1007,766.1005,block2,j,1,0,16,16,8,1,1,bottom_left,neutral,threatening,0.437,,,,,,,,,,,,,,,,,
,,,,,438778,f,y,r,n,14,0,2025-04-03_14h12.11.190,VisualSearchFaces,2024.2.4,Win32,59.88023952,,,,,,,,767.1024,767.2172,767.2172,769.2174,block2,j,1,0,17,17,0,1,1,centre,neutral,friendly,0.5372,,,,,,,,,,,,,,,,,
,,,,,438778,f,y,r,n,14,0,2025-04-03_14h12.11.190,VisualSearchFaces,2024.2.4,Win32,59.88023952,,,,,,,,770.2202,770.3177,770.3177,772.3177,block2,j,1,0,18,18,5,1,1,centre,neutral,threatening,0.4362,,,,,,,,,,,,,,,,,
,,,,,438778,f,y,r,n,14,0,2025-04-03_14h12.11.190,VisualSearchFaces,2024.2.4,Win32,59.88023952,,,,,,,,773.3198,773.4345,773.4345,775.4347,block2,j,1,0,19,19,14,1,1,bottom_right,friendly,neutral,0.8226,,,,,,,,,,,,,,,,,
,,,,,438778,f,y,r,n,14,0,2025-04-03_14h12.11.190,VisualSearchFaces,2024.2.4,Win32,59.88023952,,,,,,,,776.437,776.5512,776.5513,778.5515,block2,f,1,0,20,20,24,1,0,bottom_right,neutral,no_target,0.4386,,,,,,,,,,,,,,,,,
,,,,,438778,f,y,r,n,14,0,2025-04-03_14h12.11.190,VisualSearchFaces,2024.2.4,Win32,59.88023952,,,,,,,,779.5543,779.652,779.6521,781.6529,block2,f,1,0,21,21,30,1,0,centre,friendly,no_target,0.664,,,,,,,,,,,,,,,,,
,,,,,438778,f,y,r,n,14,0,2025-04-03_14h12.11.190,VisualSearchFaces,2024.2.4,Win32,59.88023952,,,,,,,,782.654,782.7686,782.7686,784.7684,block2,f,1,0,22,22,20,1,0,centre,neutral,no_target,0.4781,,,,,,,,,,,,,,,,,
,,,,,438778,f,y,r,n,14,0,2025-04-03_14h12.11.190,VisualSearchFaces,2024.2.4,Win32,59.88023952,,,,,,,,785.7704,785.8854,785.8855,787.8854,block2,f,1,0,23,23,36,1,0,top_left,threatening,no_target,0.5718,,,,,,,,,,,,,,,,,
,,,,,438778,f,y,r,n,14,0,2025-04-03_14h12.11.190,VisualSearchFaces,2024.2.4,Win32,59.88023952,,,,,,,,788.8878,788.9859,788.986,790.9856,block2,f,1,0,24,24,34,1,0,bottom_right,friendly,no_target,0.7276,,,,,,,,,,,,,,,,,
,,,,,438778,f,y,r,n,14,0,2025-04-03_14h12.11.190,VisualSearchFaces,2024.2.4,Win32,59.88023952,,,,,,,,791.9882,792.1024,792.1025,794.1026,block2,f,1,0,25,25,39,1,0,bottom_right,threatening,no_target,0.4698,,,,,,,,,,,,,,,,,
,,,,,438778,f,y,r,n,14,0,2025-04-03_14h12.11.190,VisualSearchFaces,2024.2.4,Win32,59.88023952,,,,,,,,795.1048,795.2101,795.2101,797.2079,block2,j,1,0,26,26,10,1,1,centre,friendly,neutral,0.4136,,,,,,,,,,,,,,,,,
,,,,,438778,f,y,r,n,14,0,2025-04-03_14h12.11.190,VisualSearchFaces,2024.2.4,Win32,59.88023952,,,,,,,,798.2052,798.3195,798.3196,800.3196,block2,j,1,0,27,27,9,1,1,bottom_right,neutral,threatening,0.4356,,,,,,,,,,,,,,,,,
,,,,,438778,f,y,r,n,14,0,2025-04-03_14h12.11.190,VisualSearchFaces,2024.2.4,Win32,59.88023952,,,,,,,,801.3249,801.4365,801.4366,803.4365,block2,j,1,0,28,28,19,1,1,bottom_right,threatening,neutral,0.3927,,,,,,,,,,,,,,,,,
,,,,,438778,f,y,r,n,14,0,2025-04-03_14h12.11.190,VisualSearchFaces,2024.2.4,Win32,59.88023952,,,,,,,,804.4391,804.5532,804.5532,806.5533,block2,j,1,0,29,29,16,1,1,top_left,threatening,neutral,0.5377,,,,,,,,,,,,,,,,,
,,,,,438778,f,y,r,n,14,0,2025-04-03_14h12.11.190,VisualSearchFaces,2024.2.4,Win32,59.88023952,,,,,,,,807.5548,807.6702,807.6703,809.6704,block2,j,1,0,30,30,12,1,1,top_right,friendly,neutral,0.3391,,,,,,,,,,,,,,,,,
,,,,,438778,f,y,r,n,14,0,2025-04-03_14h12.11.190,VisualSearchFaces,2024.2.4,Win32,59.88023952,,,,,,,,810.6731,810.7871,810.7871,812.7869,block2,j,0,0,31,31,37,1,0,top_right,threatening,no_target,0.2675,,,,,,,,,,,,,,,,,
,,,,,438778,f,y,r,n,14,0,2025-04-03_14h12.11.190,VisualSearchFaces,2024.2.4,Win32,59.88023952,,,,,,,,813.7893,813.8872,813.8873,815.8872,block2,f,1,0,32,32,38,1,0,bottom_left,threatening,no_target,0.4734,,,,,,,,,,,,,,,,,
,,,,,438778,f,y,r,n,14,0,2025-04-03_14h12.11.190,VisualSearchFaces,2024.2.4,Win32,59.88023952,,,,,,,,816.8904,817.004,817.004,819.0043,block2,f,1,0,33,33,29,1,0,bottom_right,neutral,no_target,0.3913,,,,,,,,,,,,,,,,,
,,,,,438778,f,y,r,n,14,0,2025-04-03_14h12.11.190,VisualSearchFaces,2024.2.4,Win32,59.88023952,,,,,,,,820.0056,820.121,820.121,822.1211,block2,j,1,0,34,34,17,1,1,top_right,threatening,neutral,0.4842,,,,,,,,,,,,,,,,,
,,,,,438778,f,y,r,n,14,0,2025-04-03_14h12.11.190,VisualSearchFaces,2024.2.4,Win32,59.88023952,,,,,,,,823.1231,823.2379,823.238,825.2379,block2,j,1,0,35,35,11,1,1,top_left,friendly,neutral,0.5226,,,,,,,,,,,,,,,,,
,,,,,438778,f,y,r,n,14,0,2025-04-03_14h12.11.190,VisualSearchFaces,2024.2.4,Win32,59.88023952,,,,,,,,826.2402,826.3382,826.3383,828.3381,block2,f,1,0,36,36,23,1,0,bottom_left,neutral,no_target,0.9002,,,,,,,,,,,,,,,,,
,,,,,438778,f,y,r,n,14,0,2025-04-03_14h12.11.190,VisualSearchFaces,2024.2.4,Win32,59.88023952,,,,,,,,829.3406,829.4385,829.4385,831.4384,block2,j,1,0,37,37,18,1,1,bottom_left,threatening,neutral,0.5857,,,,,,,,,,,,,,,,,
,,,,,438778,f,y,r,n,14,0,2025-04-03_14h12.11.190,VisualSearchFaces,2024.2.4,Win32,59.88023952,,,,,,,,832.4407,832.555,832.5551,834.5553,block2,f,1,0,38,38,31,1,0,top_left,friendly,no_target,0.8379,,,,,,,,,,,,,,,,,
,,,,,438778,f,y,r,n,14,0,2025-04-03_14h12.11.190,VisualSearchFaces,2024.2.4,Win32,59.88023952,,,,,,,,835.5566,835.672,835.672,837.6721,block2,j,1,0,39,39,7,1,1,top_right,neutral,threatening,0.4558,,,,,,,,,,,,,,,,,
,,,,,438778,f,y,r,n,14,0,2025-04-03_14h12.11.190,VisualSearchFaces,2024.2.4,Win32,59.88023952,,,,,,,,838.6735,838.7889,838.7889,840.7889,block2,j,1,1,0,40,3,1,1,bottom_left,neutral,friendly,0.6201,,,,,,,,,,,,,,,,,
,,,,,438778,f,y,r,n,14,0,2025-04-03_14h12.11.190,VisualSearchFaces,2024.2.4,Win32,59.88023952,,,,,,,,841.7913,841.8893,841.8893,843.8892,block2,j,1,1,1,41,12,1,1,top_right,friendly,neutral,0.518,,,,,,,,,,,,,,,,,
,,,,,438778,f,y,r,n,14,0,2025-04-03_14h12.11.190,VisualSearchFaces,2024.2.4,Win32,59.88023952,,,,,,,,844.8924,845.006,845.0061,847.0061,block2,j,1,1,2,42,13,1,1,bottom_left,friendly,neutral,0.4776,,,,,,,,,,,,,,,,,
,,,,,438778,f,y,r,n,14,0,2025-04-03_14h12.11.190,VisualSearchFaces,2024.2.4,Win32,59.88023952,,,,,,,,848.008,848.1061,848.1061,850.1063,block2,j,1,1,3,43,17,1,1,top_right,threatening,neutral,0.4594,,,,,,,,,,,,,,,,,
,,,,,438778,f,y,r,n,14,0,2025-04-03_14h12.11.190,VisualSearchFaces,2024.2.4,Win32,59.88023952,,,,,,,,851.1087,851.2231,851.2231,853.2232,block2,f,1,1,4,44,31,1,0,top_left,friendly,no_target,0.625,,,,,,,,,,,,,,,,,
,,,,,438778,f,y,r,n,14,0,2025-04-03_14h12.11.190,VisualSearchFaces,2024.2.4,Win32,59.88023952,,,,,,,,854.226,854.3234,854.3234,856.3232,block2,f,1,1,5,45,38,1,0,bottom_left,threatening,no_target,0.3732,,,,,,,,,,,,,,,,,
,,,,,438778,f,y,r,n,14,0,2025-04-03_14h12.11.190,VisualSearchFaces,2024.2.4,Win32,59.88023952,,,,,,,,857.3258,857.4401,857.4401,859.4403,block2,j,1,1,6,46,7,1,1,top_right,neutral,threatening,0.5875,,,,,,,,,,,,,,,,,
,,,,,438778,f,y,r,n,14,0,2025-04-03_14h12.11.190,VisualSearchFaces,2024.2.4,Win32,59.88023952,,,,,,,,860.4426,860.557,860.557,862.5572,block2,j,1,1,7,47,18,1,1,bottom_left,threatening,neutral,0.8215,,,,,,,,,,,,,,,,,
,,,,,438778,f,y,r,n,14,0,2025-04-03_14h12.11.190,VisualSearchFaces,2024.2.4,Win32,59.88023952,,,,,,,,863.5584,863.6597,863.6597,865.6577,block2,f,1,1,8,48,28,1,0,bottom_left,neutral,no_target,0.8196,,,,,,,,,,,,,,,,,
,,,,,438778,f,y,r,n,14,0,2025-04-03_14h12.11.190,VisualSearchFaces,2024.2.4,Win32,59.88023952,,,,,,,,866.6594,866.7744,866.7745,868.7744,block2,j,1,1,9,49,9,1,1,bottom_right,neutral,threatening,0.5506,,,,,,,,,,,,,,,,,
,,,,,438778,f,y,r,n,14,0,2025-04-03_14h12.11.190,VisualSearchFaces,2024.2.4,Win32,59.88023952,,,,,,,,869.7764,869.8788,869.8788,871.8751,block2,f,1,1,10,50,29,1,0,bottom_right,neutral,no_target,0.3679,,,,,,,,,,,,,,,,,
,,,,,438778,f,y,r,n,14,0,2025-04-03_14h12.11.190,VisualSearchFaces,2024.2.4,Win32,59.88023952,,,,,,,,872.877,872.9912,872.9912,874.9915,block2,j,1,1,11,51,14,1,1,bottom_right,friendly,neutral,0.5574,,,,,,,,,,,,,,,,,
,,,,,438778,f,y,r,n,14,0,2025-04-03_14h12.11.190,VisualSearchFaces,2024.2.4,Win32,59.88023952,,,,,,,,875.9945,876.108,876.108,878.1083,block2,j,1,1,12,52,16,1,1,top_left,threatening,neutral,0.4664,,,,,,,,,,,,,,,,,
,,,,,438778,f,y,r,n,14,0,2025-04-03_14h12.11.190,VisualSearchFaces,2024.2.4,Win32,59.88023952,,,,,,,,879.1098,879.2084,879.2085,881.2084,block2,j,1,1,13,53,11,1,1,top_left,friendly,neutral,0.4287,,,,,,,,,,,,,,,,,
,,,,,438778,f,y,r,n,14,0,2025-04-03_14h12.11.190,VisualSearchFaces,2024.2.4,Win32,59.88023952,,,,,,,,882.2106,882.3254,882.3255,884.3252,block2,j,1,1,14,54,2,1,1,top_right,neutral,friendly,0.4453,,,,,,,,,,,,,,,,,
,,,,,438778,f,y,r,n,14,0,2025-04-03_14h12.11.190,VisualSearchFaces,2024.2.4,Win32,59.88023952,,,,,,,,885.3273,885.442,885.442,887.4421,block2,j,1,1,15,55,19,1,1,bottom_right,threatening,neutral,0.394,,,,,,,,,,,,,,,,,
,,,,,438778,f,y,r,n,14,0,2025-04-03_14h12.11.190,VisualSearchFaces,2024.2.4,Win32,59.88023952,,,,,,,,888.4448,888.5426,888.5426,890.5422,block2,f,1,1,16,56,22,1,0,top_right,neutral,no_target,0.5663,,,,,,,,,,,,,,,,,
,,,,,438778,f,y,r,n,14,0,2025-04-03_14h12.11.190,VisualSearchFaces,2024.2.4,Win32,59.88023952,,,,,,,,891.5445,891.6428,891.6428,893.6428,block2,j,1,1,17,57,1,1,1,top_left,neutral,friendly,0.5942,,,,,,,,,,,,,,,,,
,,,,,438778,f,y,r,n,14,0,2025-04-03_14h12.11.190,VisualSearchFaces,2024.2.4,Win32,59.88023952,,,,,,,,894.6454,894.7592,894.7592,896.7595,block2,j,1,1,18,58,15,1,1,centre,threatening,neutral,0.8653,,,,,,,,,,,,,,,,,
,,,,,438778,f,y,r,n,14,0,2025-04-03_14h12.11.190,VisualSearchFaces,2024.2.4,Win32,59.88023952,,,,,,,,897.7617,897.8761,897.8762,899.8764,block2,j,1,1,19,59,4,1,1,bottom_right,neutral,friendly,0.5583,,,,,,,,,,,,,,,,,
,,,,,438778,f,y,r,n,14,0,2025-04-03_14h12.11.190,VisualSearchFaces,2024.2.4,Win32,59.88023952,,,,,,,,900.8786,900.9933,900.9933,902.9931,block2,f,1,1,20,60,33,1,0,bottom_left,friendly,no_target,0.6084,,,,,,,,,,,,,,,,,
,,,,,438778,f,y,r,n,14,0,2025-04-03_14h12.11.190,VisualSearchFaces,2024.2.4,Win32,59.88023952,,,,,,,,903.9955,904.11,904.11,906.1101,block2,f,1,1,21,61,36,1,0,top_left,threatening,no_target,0.527,,,,,,,,,,,,,,,,,
,,,,,438778,f,y,r,n,14,0,2025-04-03_14h12.11.190,VisualSearchFaces,2024.2.4,Win32,59.88023952,,,,,,,,907.1115,907.227,907.2271,909.227,block2,f,1,1,22,62,37,1,0,top_right,threatening,no_target,0.4393,,,,,,,,,,,,,,,,,
,,,,,438778,f,y,r,n,14,0,2025-04-03_14h12.11.190,VisualSearchFaces,2024.2.4,Win32,59.88023952,,,,,,,,910.2298,910.3436,910.3436,912.3444,block2,j,1,1,23,63,8,1,1,bottom_left,neutral,threatening,0.4803,,,,,,,,,,,,,,,,,
,,,,,438778,f,y,r,n,14,0,2025-04-03_14h12.11.190,VisualSearchFaces,2024.2.4,Win32,59.88023952,,,,,,,,913.3466,913.4605,913.4606,915.4609,block2,f,1,1,24,64,27,1,0,top_right,neutral,no_target,0.4682,,,,,,,,,,,,,,,,,
,,,,,438778,f,y,r,n,14,0,2025-04-03_14h12.11.190,VisualSearchFaces,2024.2.4,Win32,59.88023952,,,,,,,,916.4633,916.5775,916.5775,918.5776,block2,f,1,1,25,65,32,1,0,top_right,friendly,no_target,0.4992,,,,,,,,,,,,,,,,,
,,,,,438778,f,y,r,n,14,0,2025-04-03_14h12.11.190,VisualSearchFaces,2024.2.4,Win32,59.88023952,,,,,,,,919.5799,919.6945,919.6946,921.6947,block2,f,1,1,26,66,21,1,0,top_left,neutral,no_target,0.4757,,,,,,,,,,,,,,,,,
,,,,,438778,f,y,r,n,14,0,2025-04-03_14h12.11.190,VisualSearchFaces,2024.2.4,Win32,59.88023952,,,,,,,,922.6961,922.8115,922.8116,924.8112,block2,j,1,1,27,67,6,1,1,top_left,neutral,threatening,0.5022,,,,,,,,,,,,,,,,,
,,,,,438778,f,y,r,n,14,0,2025-04-03_14h12.11.190,VisualSearchFaces,2024.2.4,Win32,59.88023952,,,,,,,,925.8133,925.9389,925.939,927.9283,block2,j,1,1,28,68,10,1,1,centre,friendly,neutral,0.6859,,,,,,,,,,,,,,,,,
,,,,,438778,f,y,r,n,14,0,2025-04-03_14h12.11.190,VisualSearchFaces,2024.2.4,Win32,59.88023952,,,,,,,,928.931,929.0451,929.0452,931.0453,block2,f,1,1,29,69,35,1,0,centre,threatening,no_target,0.5026,,,,,,,,,,,,,,,,,
,,,,,438778,f,y,r,n,14,0,2025-04-03_14h12.11.190,VisualSearchFaces,2024.2.4,Win32,59.88023952,,,,,,,,932.0483,932.1627,932.1628,934.1624,block2,f,1,1,30,70,20,1,0,centre,neutral,no_target,0.4661,,,,,,,,,,,,,,,,,
,,,,,438778,f,y,r,n,14,0,2025-04-03_14h12.11.190,VisualSearchFaces,2024.2.4,Win32,59.88023952,,,,,,,,935.1643,935.2788,935.2789,937.2787,block2,f,1,1,31,71,34,1,0,bottom_right,friendly,no_target,0.6696,,,,,,,,,,,,,,,,,
,,,,,438778,f,y,r,n,14,0,2025-04-03_14h12.11.190,VisualSearchFaces,2024.2.4,Win32,59.88023952,,,,,,,,938.2811,938.3959,938.3959,940.3957,block2,f,1,1,32,72,23,1,0,bottom_left,neutral,no_target,0.3767,,,,,,,,,,,,,,,,,
,,,,,438778,f,y,r,n,14,0,2025-04-03_14h12.11.190,VisualSearchFaces,2024.2.4,Win32,59.88023952,,,,,,,,941.3982,941.5131,941.5131,943.5127,block2,j,1,1,33,73,0,1,1,centre,neutral,friendly,0.3385,,,,,,,,,,,,,,,,,
,,,,,438778,f,y,r,n,14,0,2025-04-03_14h12.11.190,VisualSearchFaces,2024.2.4,Win32,59.88023952,,,,,,,,944.5151,944.6292,944.6292,946.6295,block2,f,1,1,34,74,26,1,0,top_left,neutral,no_target,0.5077,,,,,,,,,,,,,,,,,
,,,,,438778,f,y,r,n,14,0,2025-04-03_14h12.11.190,VisualSearchFaces,2024.2.4,Win32,59.88023952,,,,,,,,947.6323,947.7463,947.7463,949.7463,block2,f,1,1,35,75,24,1,0,bottom_right,neutral,no_target,0.3451,,,,,,,,,,,,,,,,,
,,,,,438778,f,y,r,n,14,0,2025-04-03_14h12.11.190,VisualSearchFaces,2024.2.4,Win32,59.88023952,,,,,,,,950.7492,950.863,950.8631,952.8634,block2,f,1,1,36,76,30,1,0,centre,friendly,no_target,0.4543,,,,,,,,,,,,,,,,,
,,,,,438778,f,y,r,n,14,0,2025-04-03_14h12.11.190,VisualSearchFaces,2024.2.4,Win32,59.88023952,,,,,,,,953.8658,953.9801,953.9801,955.98,block2,j,1,1,37,77,5,1,1,centre,neutral,threatening,0.4673,,,,,,,,,,,,,,,,,
,,,,,438778,f,y,r,n,14,0,2025-04-03_14h12.11.190,VisualSearchFaces,2024.2.4,Win32,59.88023952,,,,,,,,956.9848,957.0969,957.097,959.0974,block2,f,1,1,38,78,39,1,0,bottom_right,threatening,no_target,0.5271,,,,,,,,,,,,,,,,,
,,,,,438778,f,y,r,n,14,0,2025-04-03_14h12.11.190,VisualSearchFaces,2024.2.4,Win32,59.88023952,,,,,,,,960.1006,960.2139,960.2139,962.2139,block2,f,1,1,39,79,25,1,0,centre,neutral,no_target,0.4041,,,,,,,,,,,,,,,,,
,,,,,438778,f,y,r,n,14,0,2025-04-03_14h12.11.190,VisualSearchFaces,2024.2.4,Win32,59.88023952,,,969.1173,994.6827,space,25.543,,995.6853,995.7831,995.7831,997.7831,block3,j,1,0,0,0,2,1,1,top_right,neutral,friendly,0.5447,,962.2158,969.1144,space,6.8798,,,,,,,,,,,,
,,,,,438778,f,y,r,n,14,0,2025-04-03_14h12.11.190,VisualSearchFaces,2024.2.4,Win32,59.88023952,,,,,,,,998.7849,998.8997,998.8997,1000.9,block3,j,1,0,1,1,5,1,1,centre,neutral,threatening,0.4159,,,,,,,,,,,,,,,,,
,,,,,438778,f,y,r,n,14,0,2025-04-03_14h12.11.190,VisualSearchFaces,2024.2.4,Win32,59.88023952,,,,,,,,1001.902,1002.0166,1002.0168,1004.0168,block3,j,1,0,2,2,10,1,1,centre,friendly,neutral,0.3856,,,,,,,,,,,,,,,,,
,,,,,438778,f,y,r,n,14,0,2025-04-03_14h12.11.190,VisualSearchFaces,2024.2.4,Win32,59.88023952,,,,,,,,1005.0188,1005.1335,1005.1336,1007.1335,block3,f,1,0,3,3,22,1,0,top_right,neutral,no_target,0.4816,,,,,,,,,,,,,,,,,
,,,,,438778,f,y,r,n,14,0,2025-04-03_14h12.11.190,VisualSearchFaces,2024.2.4,Win32,59.88023952,,,,,,,,1008.1359,1008.234,1008.2341,1010.2338,block3,f,1,0,4,4,29,1,0,bottom_right,neutral,no_target,0.4218,,,,,,,,,,,,,,,,,
,,,,,438778,f,y,r,n,14,0,2025-04-03_14h12.11.190,VisualSearchFaces,2024.2.4,Win32,59.88023952,,,,,,,,1011.2361,1011.3506,1011.3506,1013.3506,block3,j,1,0,5,5,16,1,1,top_left,threatening,neutral,0.5244,,,,,,,,,,,,,,,,,
,,,,,438778,f,y,r,n,14,0,2025-04-03_14h12.11.190,VisualSearchFaces,2024.2.4,Win32,59.88023952,,,,,,,,1014.3523,1014.4676,1014.4676,1016.4675,block3,j,1,0,6,6,6,1,1,top_left,neutral,threatening,0.4563,,,,,,,,,,,,,,,,,
,,,,,438778,f,y,r,n,14,0,2025-04-03_14h12.11.190,VisualSearchFaces,2024.2.4,Win32,59.88023952,,,,,,,,1017.4702,1017.5842,1017.5842,1019.5845,block3,f,1,0,7,7,23,1,0,bottom_left,neutral,no_target,0.4491,,,,,,,,,,,,,,,,,
,,,,,438778,f,y,r,n,14,0,2025-04-03_14h12.11.190,VisualSearchFaces,2024.2.4,Win32,59.88023952,,,,,,,,1020.5867,1020.6848,1020.6848,1022.6848,block3,j,1,0,8,8,11,1,1,top_left,friendly,neutral,0.6657,,,,,,,,,,,,,,,,,
,,,,,438778,f,y,r,n,14,0,2025-04-03_14h12.11.190,VisualSearchFaces,2024.2.4,Win32,59.88023952,,,,,,,,1023.6874,1023.8014,1023.8015,1025.8014,block3,f,0,0,9,9,18,1,1,bottom_left,threatening,neutral,0.8971,,,,,,,,,,,,,,,,,
,,,,,438778,f,y,r,n,14,0,2025-04-03_14h12.11.190,VisualSearchFaces,2024.2.4,Win32,59.88023952,,,,,,,,1026.8035,1026.9184,1026.9184,1028.9185,block3,f,1,0,10,10,28,1,0,bottom_left,neutral,no_target,0.5226,,,,,,,,,,,,,,,,,
,,,,,438778,f,y,r,n,14,0,2025-04-03_14h12.11.190,VisualSearchFaces,2024.2.4,Win32,59.88023952,,,,,,,,1029.9199,1030.035,1030.0351,1032.0353,block3,f,1,0,11,11,24,1,0,bottom_right,neutral,no_target,0.3557,,,,,,,,,,,,,,,,,
,,,,,438778,f,y,r,n,14,0,2025-04-03_14h12.11.190,VisualSearchFaces,2024.2.4,Win32,59.88023952,,,,,,,,1033.0374,1033.1521,1033.1522,1035.1521,block3,f,1,0,12,12,21,1,0,top_left,neutral,no_target,0.3751,,,,,,,,,,,,,,,,,
,,,,,438778,f,y,r,n,14,0,2025-04-03_14h12.11.190,VisualSearchFaces,2024.2.4,Win32,59.88023952,,,,,,,,1036.154,1036.2529,1036.2529,1038.2524,block3,f,1,0,13,13,34,1,0,bottom_right,friendly,no_target,0.9379,,,,,,,,,,,,,,,,,
,,,,,438778,f,y,r,n,14,0,2025-04-03_14h12.11.190,VisualSearchFaces,2024.2.4,Win32,59.88023952,,,,,,,,1039.2566,1039.3694,1039.3694,1041.3694,block3,j,1,0,14,14,13,1,1,bottom_left,friendly,neutral,0.6256,,,,,,,,,,,,,,,,,
,,,,,438778,f,y,r,n,14,0,2025-04-03_14h12.11.190,VisualSearchFaces,2024.2.4,Win32,59.88023952,,,,,,,,1042.3713,1042.4861,1042.4861,1044.4863,block3,f,1,0,15,15,30,1,0,centre,friendly,no_target,0.6364,,,,,,,,,,,,,,,,,
,,,,,438778,f,y,r,n,14,0,2025-04-03_14h12.11.190,VisualSearchFaces,2024.2.4,Win32,59.88023952,,,,,,,,1045.488,1045.6029,1045.603,1047.603,block3,j,0,0,16,16,32,1,0,top_right,friendly,no_target,0.5189,,,,,,,,,,,,,,,,,
,,,,,438778,f,y,r,n,14,0,2025-04-03_14h12.11.190,VisualSearchFaces,2024.2.4,Win32,59.88023952,,,,,,,,1048.6069,1048.7197,1048.7198,1050.72,block3,j,1,0,17,17,14,1,1,bottom_right,friendly,neutral,0.4518,,,,,,,,,,,,,,,,,
,,,,,438778,f,y,r,n,14,0,2025-04-03_14h12.11.190,VisualSearchFaces,2024.2.4,Win32,59.88023952,,,,,,,,1051.7226,1051.8368,1051.8368,1053.8368,block3,f,1,0,18,18,35,1,0,centre,threatening,no_target,0.5007,,,,,,,,,,,,,,,,,
,,,,,438778,f,y,r,n,14,0,2025-04-03_14h12.11.190,VisualSearchFaces,2024.2.4,Win32,59.88023952,,,,,,,,1054.8395,1054.9535,1054.9536,1056.9537,block3,j,1,0,19,19,3,1,1,bottom_left,neutral,friendly,0.6276,,,,,,,,,,,,,,,,,
,,,,,438778,f,y,r,n,14,0,2025-04-03_14h12.11.190,VisualSearchFaces,2024.2.4,Win32,59.88023952,,,,,,,,1057.9557,1058.0706,1058.0706,1060.0706,block3,f,1,0,20,20,27,1,0,top_right,neutral,no_target,0.312,,,,,,,,,,,,,,,,,
,,,,,438778,f,y,r,n,14,0,2025-04-03_14h12.11.190,VisualSearchFaces,2024.2.4,Win32,59.88023952,,,,,,,,1061.0739,1061.1874,1061.1874,1063.1875,block3,f,1,0,21,21,33,1,0,bottom_left,friendly,no_target,0.4121,,,,,,,,,,,,,,,,,
,,,,,438778,f,y,r,n,14,0,2025-04-03_14h12.11.190,VisualSearchFaces,2024.2.4,Win32,59.88023952,,,,,,,,1064.1898,1064.3041,1064.3042,1066.3045,block3,f,1,0,22,22,38,1,0,bottom_left,threatening,no_target,0.5093,,,,,,,,,,,,,,,,,
,,,,,438778,f,y,r,n,14,0,2025-04-03_14h12.11.190,VisualSearchFaces,2024.2.4,Win32,59.88023952,,,,,,,,1067.3061,1067.421,1067.421,1069.4211,block3,j,1,0,23,23,9,1,1,bottom_right,neutral,threatening,0.5066,,,,,,,,,,,,,,,,,
,,,,,438778,f,y,r,n,14,0,2025-04-03_14h12.11.190,VisualSearchFaces,2024.2.4,Win32,59.88023952,,,,,,,,1070.4236,1070.5379,1070.5379,1072.5382,block3,f,1,0,24,24,20,1,0,centre,neutral,no_target,0.5388,,,,,,,,,,,,,,,,,
,,,,,438778,f,y,r,n,14,0,2025-04-03_14h12.11.190,VisualSearchFaces,2024.2.4,Win32,59.88023952,,,,,,,,1073.5406,1073.6548,1073.6548,1075.655,block3,j,1,0,25,25,0,1,1,centre,neutral,friendly,0.5405,,,,,,,,,,,,,,,,,
,,,,,438778,f,y,r,n,14,0,2025-04-03_14h12.11.190,VisualSearchFaces,2024.2.4,Win32,59.88023952,,,,,,,,1076.657,1076.772,1076.7721,1078.7721,block3,f,1,0,26,26,26,1,0,top_left,neutral,no_target,0.4795,,,,,,,,,,,,,,,,,
,,,,,438778,f,y,r,n,14,0,2025-04-03_14h12.11.190,VisualSearchFaces,2024.2.4,Win32,59.88023952,,,,,,,,1079.7745,1079.8888,1079.8889,1081.8887,block3,j,1,0,27,27,19,1,1,bottom_right,threatening,neutral,0.5662,,,,,,,,,,,,,,,,,
,,,,,438778,f,y,r,n,14,0,2025-04-03_14h12.11.190,VisualSearchFaces,2024.2.4,Win32,59.88023952,,,,,,,,1082.8905,1083.0057,1083.0057,1085.0059,block3,j,1,0,28,28,4,1,1,bottom_right,neutral,friendly,0.5152,,,,,,,,,,,,,,,,,
,,,,,438778,f,y,r,n,14,0,2025-04-03_14h12.11.190,VisualSearchFaces,2024.2.4,Win32,59.88023952,,,,,,,,1086.0077,1086.1227,1086.1227,1088.1227,block3,j,1,0,29,29,1,1,1,top_left,neutral,friendly,0.7709,,,,,,,,,,,,,,,,,
,,,,,438778,f,y,r,n,14,0,2025-04-03_14h12.11.190,VisualSearchFaces,2024.2.4,Win32,59.88023952,,,,,,,,1089.1246,1089.2233,1089.2234,1091.2232,block3,j,1,0,30,30,8,1,1,bottom_left,neutral,threatening,0.548,,,,,,,,,,,,,,,,,
,,,,,438778,f,y,r,n,14,0,2025-04-03_14h12.11.190,VisualSearchFaces,2024.2.4,Win32,59.88023952,,,,,,,,1092.2254,1092.3394,1092.3394,1094.3393,block3,f,1,0,31,31,39,1,0,bottom_right,threatening,no_target,0.5371,,,,,,,,,,,,,,,,,
,,,,,438778,f,y,r,n,14,0,2025-04-03_14h12.11.190,VisualSearchFaces,2024.2.4,Win32,59.88023952,,,,,,,,1095.3421,1095.44,1095.4401,1097.4399,block3,f,1,0,32,32,25,1,0,centre,neutral,no_target,0.4382,,,,,,,,,,,,,,,,,
,,,,,438778,f,y,r,n,14,0,2025-04-03_14h12.11.190,VisualSearchFaces,2024.2.4,Win32,59.88023952,,,,,,,,1098.4415,1098.5566,1098.5567,1100.5565,block3,f,1,0,33,33,37,1,0,top_right,threatening,no_target,0.6194,,,,,,,,,,,,,,,,,
,,,,,438778,f,y,r,n,14,0,2025-04-03_14h12.11.190,VisualSearchFaces,2024.2.4,Win32,59.88023952,,,,,,,,1101.5608,1101.6735,1101.6735,1103.6734,block3,j,1,0,34,34,12,1,1,top_right,friendly,neutral,0.6872,,,,,,,,,,,,,,,,,
,,,,,438778,f,y,r,n,14,0,2025-04-03_14h12.11.190,VisualSearchFaces,2024.2.4,Win32,59.88023952,,,,,,,,1104.6758,1104.7903,1104.7903,1106.7904,block3,j,1,0,35,35,7,1,1,top_right,neutral,threatening,0.3893,,,,,,,,,,,,,,,,,
,,,,,438778,f,y,r,n,14,0,2025-04-03_14h12.11.190,VisualSearchFaces,2024.2.4,Win32,59.88023952,,,,,,,,1107.7931,1107.9071,1107.9071,1109.9073,block3,j,1,0,36,36,17,1,1,top_right,threatening,neutral,0.5063,,,,,,,,,,,,,,,,,
,,,,,438778,f,y,r,n,14,0,2025-04-03_14h12.11.190,VisualSearchFaces,2024.2.4,Win32,59.88023952,,,,,,,,1110.9097,1111.0241,1111.0242,1113.0241,block3,f,1,0,37,37,31,1,0,top_left,friendly,no_target,0.902,,,,,,,,,,,,,,,,,
,,,,,438778,f,y,r,n,14,0,2025-04-03_14h12.11.190,VisualSearchFaces,2024.2.4,Win32,59.88023952,,,,,,,,1114.0263,1114.1412,1114.1413,1116.1408,block3,f,1,0,38,38,36,1,0,top_left,threatening,no_target,0.9496,,,,,,,,,,,,,,,,,
,,,,,438778,f,y,r,n,14,0,2025-04-03_14h12.11.190,VisualSearchFaces,2024.2.4,Win32,59.88023952,,,,,,,,1117.143,1117.2577,1117.2577,1119.258,block3,j,1,0,39,39,15,1,1,centre,threatening,neutral,0.7194,,,,,,,,,,,,,,,,,
,,,,,438778,f,y,r,n,14,0,2025-04-03_14h12.11.190,VisualSearchFaces,2024.2.4,Win32,59.88023952,,,,,,,,1120.2601,1120.3749,1120.3749,1122.3758,block3,j,1,1,0,40,12,1,1,top_right,friendly,neutral,0.6004,,,,,,,,,,,,,,,,,
,,,,,438778,f,y,r,n,14,0,2025-04-03_14h12.11.190,VisualSearchFaces,2024.2.4,Win32,59.88023952,,,,,,,,1123.3771,1123.4913,1123.4914,1125.4916,block3,f,1,1,1,41,29,1,0,bottom_right,neutral,no_target,0.6237,,,,,,,,,,,,,,,,,
,,,,,438778,f,y,r,n,14,0,2025-04-03_14h12.11.190,VisualSearchFaces,2024.2.4,Win32,59.88023952,,,,,,,,1126.4971,1126.6083,1126.6084,1128.6084,block3,f,1,1,2,42,23,1,0,bottom_left,neutral,no_target,0.4839,,,,,,,,,,,,,,,,,
,,,,,438778,f,y,r,n,14,0,2025-04-03_14h12.11.190,VisualSearchFaces,2024.2.4,Win32,59.88023952,,,,,,,,1129.6106,1129.7253,1129.7253,1131.7257,block3,f,1,1,3,43,24,1,0,bottom_right,neutral,no_target,0.4271,,,,,,,,,,,,,,,,,
,,,,,438778,f,y,r,n,14,0,2025-04-03_14h12.11.190,VisualSearchFaces,2024.2.4,Win32,59.88023952,,,,,,,,1132.7275,1132.8423,1132.8423,1134.8424,block3,f,1,1,4,44,26,1,0,top_left,neutral,no_target,0.4689,,,,,,,,,,,,,,,,,
,,,,,438778,f,y,r,n,14,0,2025-04-03_14h12.11.190,VisualSearchFaces,2024.2.4,Win32,59.88023952,,,,,,,,1135.844,1135.9591,1135.9591,1137.9592,block3,f,1,1,5,45,28,1,0,bottom_left,neutral,no_target,0.4022,,,,,,,,,,,,,,,,,
,,,,,438778,f,y,r,n,14,0,2025-04-03_14h12.11.190,VisualSearchFaces,2024.2.4,Win32,59.88023952,,,,,,,,1138.9614,1139.0758,1139.0758,1141.0761,block3,f,1,1,6,46,27,1,0,top_right,neutral,no_target,0.3187,,,,,,,,,,,,,,,,,
,,,,,438778,f,y,r,n,14,0,2025-04-03_14h12.11.190,VisualSearchFaces,2024.2.4,Win32,59.88023952,,,,,,,,1142.0783,1142.1927,1142.1927,1144.193,block3,f,1,1,7,47,20,1,0,centre,neutral,no_target,0.3993,,,,,,,,,,,,,,,,,
,,,,,438778,f,y,r,n,14,0,2025-04-03_14h12.11.190,VisualSearchFaces,2024.2.4,Win32,59.88023952,,,,,,,,1145.1959,1145.3097,1145.3097,1147.3099,block3,j,1,1,8,48,1,1,1,top_left,neutral,friendly,0.4718,,,,,,,,,,,,,,,,,
,,,,,438778,f,y,r,n,14,0,2025-04-03_14h12.11.190,VisualSearchFaces,2024.2.4,Win32,59.88023952,,,,,,,,1148.3113,1148.427,1148.427,1150.4267,block3,f,1,1,9,49,33,1,0,bottom_left,friendly,no_target,0.6201,,,,,,,,,,,,,,,,,
,,,,,438778,f,y,r,n,14,0,2025-04-03_14h12.11.190,VisualSearchFaces,2024.2.4,Win32,59.88023952,,,,,,,,1151.4287,1151.5442,1151.5443,1153.5438,block3,j,1,1,10,50,0,1,1,centre,neutral,friendly,0.5329,,,,,,,,,,,,,,,,,
,,,,,438778,f,y,r,n,14,0,2025-04-03_14h12.11.190,VisualSearchFaces,2024.2.4,Win32,59.88023952,,,,,,,,1154.5455,1154.6442,1154.6442,1156.6446,block3,j,1,1,11,51,6,1,1,top_left,neutral,threatening,0.3345,,,,,,,,,,,,,,,,,
,,,,,438778,f,y,r,n,14,0,2025-04-03_14h12.11.190,VisualSearchFaces,2024.2.4,Win32,59.88023952,,,,,,,,1157.6454,1157.7606,1157.7607,1159.7615,block3,f,1,1,12,52,38,1,0,bottom_left,threatening,no_target,0.6475,,,,,,,,,,,,,,,,,
,,,,,438778,f,y,r,n,14,0,2025-04-03_14h12.11.190,VisualSearchFaces,2024.2.4,Win32,59.88023952,,,,,,,,1160.7636,1160.8773,1160.8774,1162.8777,block3,f,1,1,13,53,32,1,0,top_right,friendly,no_target,0.6013,,,,,,,,,,,,,,,,,
,,,,,438778,f,y,r,n,14,0,2025-04-03_14h12.11.190,VisualSearchFaces,2024.2.4,Win32,59.88023952,,,,,,,,1163.8794,1163.9782,1163.9783,1165.978,block3,j,1,1,14,54,10,1,1,centre,friendly,neutral,0.4846,,,,,,,,,,,,,,,,,
,,,,,438778,f,y,r,n,14,0,2025-04-03_14h12.11.190,VisualSearchFaces,2024.2.4,Win32,59.88023952,,,,,,,,1166.98,1167.0874,1167.0874,1169.0809,block3,j,1,1,15,55,7,1,1,top_right,neutral,threatening,0.4275,,,,,,,,,,,,,,,,,
,,,,,438778,f,y,r,n,14,0,2025-04-03_14h12.11.190,VisualSearchFaces,2024.2.4,Win32,59.88023952,,,,,,,,1170.0813,1170.1951,1170.1951,1172.1947,block3,j,1,1,16,56,13,1,1,bottom_left,friendly,neutral,0.7749,,,,,,,,,,,,,,,,,
,,,,,438778,f,y,r,n,14,0,2025-04-03_14h12.11.190,VisualSearchFaces,2024.2.4,Win32,59.88023952,,,,,,,,1173.1979,1173.3114,1173.3114,1175.312,block3,j,1,1,17,57,14,1,1,bottom_right,friendly,neutral,0.4744,,,,,,,,,,,,,,,,,
,,,,,438778,f,y,r,n,14,0,2025-04-03_14h12.11.190,VisualSearchFaces,2024.2.4,Win32,59.88023952,,,,,,,,1176.3138,1176.4287,1176.4287,1178.4289,block3,j,1,1,18,58,11,1,1,top_left,friendly,neutral,0.5323,,,,,,,,,,,,,,,,,
,,,,,438778,f,y,r,n,14,0,2025-04-03_14h12.11.190,VisualSearchFaces,2024.2.4,Win32,59.88023952,,,,,,,,1179.4301,1179.5291,1179.5293,1181.5288,block3,f,1,1,19,59,34,1,0,bottom_right,friendly,no_target,0.733,,,,,,,,,,,,,,,,,
,,,,,438778,f,y,r,n,14,0,2025-04-03_14h12.11.190,VisualSearchFaces,2024.2.4,Win32,59.88023952,,,,,,,,1182.531,1182.6374,1182.6375,1184.6314,block3,j,1,1,20,60,3,1,1,bottom_left,neutral,friendly,0.6109,,,,,,,,,,,,,,,,,
,,,,,438778,f,y,r,n,14,0,2025-04-03_14h12.11.190,VisualSearchFaces,2024.2.4,Win32,59.88023952,,,,,,,,1185.6315,1185.7462,1185.7462,1187.7463,block3,f,1,1,21,61,21,1,0,top_left,neutral,no_target,0.3875,,,,,,,,,,,,,,,,,
,,,,,438778,f,y,r,n,14,0,2025-04-03_14h12.11.190,VisualSearchFaces,2024.2.4,Win32,59.88023952,,,,,,,,1188.7506,1188.8628,1188.8628,1190.8627,block3,f,1,1,22,62,39,1,0,bottom_right,threatening,no_target,0.5692,,,,,,,,,,,,,,,,,
,,,,,438778,f,y,r,n,14,0,2025-04-03_14h12.11.190,VisualSearchFaces,2024.2.4,Win32,59.88023952,,,,,,,,1191.8647,1191.9796,1191.9796,1193.9796,block3,f,1,1,23,63,35,1,0,centre,threatening,no_target,0.472,,,,,,,,,,,,,,,,,
,,,,,438778,f,y,r,n,14,0,2025-04-03_14h12.11.190,VisualSearchFaces,2024.2.4,Win32,59.88023952,,,,,,,,1194.9824,1195.0969,1195.0969,1197.097,block3,j,1,1,24,64,5,1,1,centre,neutral,threatening,0.5204,,,,,,,,,,,,,,,,,
,,,,,438778,f,y,r,n,14,0,2025-04-03_14h12.11.190,VisualSearchFaces,2024.2.4,Win32,59.88023952,,,,,,,,1198.0986,1198.214,1198.2141,1200.2136,block3,f,1,1,25,65,22,1,0,top_right,neutral,no_target,0.4732,,,,,,,,,,,,,,,,,
,,,,,438778,f,y,r,n,14,0,2025-04-03_14h12.11.190,VisualSearchFaces,2024.2.4,Win32,59.88023952,,,,,,,,1201.2156,1201.33,1201.3301,1203.3305,block3,j,1,1,26,66,15,1,1,centre,threatening,neutral,0.4748,,,,,,,,,,,,,,,,,
,,,,,438778,f,y,r,n,14,0,2025-04-03_14h12.11.190,VisualSearchFaces,2024.2.4,Win32,59.88023952,,,,,,,,1204.3322,1204.4469,1204.447,1206.447,block3,j,1,1,27,67,19,1,1,bottom_right,threatening,neutral,0.5342,,,,,,,,,,,,,,,,,
,,,,,438778,f,y,r,n,14,0,2025-04-03_14h12.11.190,VisualSearchFaces,2024.2.4,Win32,59.88023952,,,,,,,,1207.4494,1207.5639,1207.5639,1209.5646,block3,f,1,1,28,68,36,1,0,top_left,threatening,no_target,0.5771,,,,,,,,,,,,,,,,,
,,,,,438778,f,y,r,n,14,0,2025-04-03_14h12.11.190,VisualSearchFaces,2024.2.4,Win32,59.88023952,,,,,,,,1210.567,1210.6811,1210.6811,1212.6809,block3,j,1,1,29,69,4,1,1,bottom_right,neutral,friendly,0.5035,,,,,,,,,,,,,,,,,
,,,,,438778,f,y,r,n,14,0,2025-04-03_14h12.11.190,VisualSearchFaces,2024.2.4,Win32,59.88023952,,,,,,,,1213.6826,1213.7978,1213.7978,1215.7978,block3,j,1,1,30,70,2,1,1,top_right,neutral,friendly,0.4474,,,,,,,,,,,,,,,,,
,,,,,438778,f,y,r,n,14,0,2025-04-03_14h12.11.190,VisualSearchFaces,2024.2.4,Win32,59.88023952,,,,,,,,1216.7993,1216.9145,1216.9145,1218.9146,block3,j,1,1,31,71,17,1,1,top_right,threatening,neutral,0.4746,,,,,,,,,,,,,,,,,
,,,,,438778,f,y,r,n,14,0,2025-04-03_14h12.11.190,VisualSearchFaces,2024.2.4,Win32,59.88023952,,,,,,,,1219.9171,1220.0315,1220.0315,1222.0316,block3,j,1,1,32,72,8,1,1,bottom_left,neutral,threatening,0.4362,,,,,,,,,,,,,,,,,
,,,,,438778,f,y,r,n,14,0,2025-04-03_14h12.11.190,VisualSearchFaces,2024.2.4,Win32,59.88023952,,,,,,,,1223.0344,1223.1482,1223.1482,1225.1485,block3,f,1,1,33,73,37,1,0,top_right,threatening,no_target,0.6585,,,,,,,,,,,,,,,,,
,,,,,438778,f,y,r,n,14,0,2025-04-03_14h12.11.190,VisualSearchFaces,2024.2.4,Win32,59.88023952,,,,,,,,1226.1517,1226.2656,1226.2656,1228.2655,block3,j,1,1,34,74,16,1,1,top_left,threatening,neutral,0.4875,,,,,,,,,,,,,,,,,
,,,,,438778,f,y,r,n,14,0,2025-04-03_14h12.11.190,VisualSearchFaces,2024.2.4,Win32,59.88023952,,,,,,,,1229.2672,1229.382,1229.382,1231.3822,block3,j,1,1,35,75,18,1,1,bottom_left,threatening,neutral,0.6882,,,,,,,,,,,,,,,,,
,,,,,438778,f,y,r,n,14,0,2025-04-03_14h12.11.190,VisualSearchFaces,2024.2.4,Win32,59.88023952,,,,,,,,1232.3838,1232.4823,1232.4823,1234.4824,block3,f,1,1,36,76,25,1,0,centre,neutral,no_target,0.5453,,,,,,,,,,,,,,,,,
,,,,,438778,f,y,r,n,14,0,2025-04-03_14h12.11.190,VisualSearchFaces,2024.2.4,Win32,59.88023952,,,,,,,,1235.4838,1235.5992,1235.5992,1237.5994,block3,j,0,1,37,77,30,1,0,centre,friendly,no_target,0.5133,,,,,,,,,,,,,,,,,
,,,,,438778,f,y,r,n,14,0,2025-04-03_14h12.11.190,VisualSearchFaces,2024.2.4,Win32,59.88023952,,,,,,,,1238.6014,1238.7159,1238.7159,1240.7162,block3,j,0,1,38,78,31,1,0,top_left,friendly,no_target,0.6033,,,,,,,,,,,,,,,,,
,,,,,438778,f,y,r,n,14,0,2025-04-03_14h12.11.190,VisualSearchFaces,2024.2.4,Win32,59.88023952,,,,,,,,1241.719,1241.8331,1241.8332,1243.8329,block3,j,1,1,39,79,9,1,1,bottom_right,neutral,threatening,0.5218,,,,,,,,,,,,,,,,,
,,,,,438778,f,y,r,n,14,0,2025-04-03_14h12.11.190,VisualSearchFaces,2024.2.4,Win32,59.88023952,,,1248.4197,1271.5015,space,23.0574,,1272.5046,1272.6021,1272.6022,1274.6018,block4,j,1,0,0,0,18,1,1,bottom_left,threatening,neutral,0.9149,,1243.8347,1248.4166,space,4.5549,,,,,,,,,,,,
,,,,,438778,f,y,r,n,14,0,2025-04-03_14h12.11.190,VisualSearchFaces,2024.2.4,Win32,59.88023952,,,,,,,,1275.6042,1275.7187,1275.7187,1277.7186,block4,j,1,0,1,1,16,1,1,top_left,threatening,neutral,0.4476,,,,,,,,,,,,,,,,,
,,,,,438778,f,y,r,n,14,0,2025-04-03_14h12.11.190,VisualSearchFaces,2024.2.4,Win32,59.88023952,,,,,,,,1278.7206,1278.8356,1278.8357,1280.8356,block4,j,1,0,2,2,0,1,1,centre,neutral,friendly,0.6642,,,,,,,,,,,,,,,,,
,,,,,438778,f,y,r,n,14,0,2025-04-03_14h12.11.190,VisualSearchFaces,2024.2.4,Win32,59.88023952,,,,,,,,1281.837,1281.9524,1281.9525,1283.9528,block4,f,1,0,3,3,27,1,0,top_right,neutral,no_target,0.5084,,,,,,,,,,,,,,,,,
,,,,,438778,f,y,r,n,14,0,2025-04-03_14h12.11.190,VisualSearchFaces,2024.2.4,Win32,59.88023952,,,,,,,,1284.9553,1285.0692,1285.0692,1287.0693,block4,j,1,0,4,4,14,1,1,bottom_right,friendly,neutral,0.8503,,,,,,,,,,,,,,,,,
,,,,,438778,f,y,r,n,14,0,2025-04-03_14h12.11.190,VisualSearchFaces,2024.2.4,Win32,59.88023952,,,,,,,,1288.0718,1288.1861,1288.1861,1290.186,block4,f,1,0,5,5,31,1,0,top_left,friendly,no_target,0.6089,,,,,,,,,,,,,,,,,
,,,,,438778,f,y,r,n,14,0,2025-04-03_14h12.11.190,VisualSearchFaces,2024.2.4,Win32,59.88023952,,,,,,,,1291.1887,1291.3036,1291.3036,1293.3029,block4,f,1,0,6,6,36,1,0,top_left,threatening,no_target,0.5257,,,,,,,,,,,,,,,,,
,,,,,438778,f,y,r,n,14,0,2025-04-03_14h12.11.190,VisualSearchFaces,2024.2.4,Win32,59.88023952,,,,,,,,1294.3054,1294.4197,1294.4197,1296.42,block4,j,1,0,7,7,6,1,1,top_left,neutral,threatening,0.5835,,,,,,,,,,,,,,,,,
,,,,,438778,f,y,r,n,14,0,2025-04-03_14h12.11.190,VisualSearchFaces,2024.2.4,Win32,59.88023952,,,,,,,,1297.4221,1297.5367,1297.5368,1299.5368,block4,j,1,0,8,8,3,1,1,bottom_left,neutral,friendly,0.513,,,,,,,,,,,,,,,,,
,,,,,438778,f,y,r,n,14,0,2025-04-03_14h12.11.190,VisualSearchFaces,2024.2.4,Win32,59.88023952,,,,,,,,1300.5393,1300.6537,1300.6537,1302.6537,block4,f,1,0,9,9,21,1,0,top_left,neutral,no_target,0.572,,,,,,,,,,,,,,,,,
,,,,,438778,f,y,r,n,14,0,2025-04-03_14h12.11.190,VisualSearchFaces,2024.2.4,Win32,59.88023952,,,,,,,,1303.6568,1303.7706,1303.7706,1305.7706,block4,f,1,0,10,10,38,1,0,bottom_left,threatening,no_target,0.7847,,,,,,,,,,,,,,,,,
,,,,,438778,f,y,r,n,14,0,2025-04-03_14h12.11.190,VisualSearchFaces,2024.2.4,Win32,59.88023952,,,,,,,,1306.7747,1306.8872,1306.8873,1308.8873,block4,f,1,0,11,11,34,1,0,bottom_right,friendly,no_target,0.6475,,,,,,,,,,,,,,,,,
,,,,,438778,f,y,r,n,14,0,2025-04-03_14h12.11.190,VisualSearchFaces,2024.2.4,Win32,59.88023952,,,,,,,,1309.8892,1310.0043,1310.0043,1312.0047,block4,f,1,0,12,12,35,1,0,centre,threatening,no_target,0.4338,,,,,,,,,,,,,,,,,
,,,,,438778,f,y,r,n,14,0,2025-04-03_14h12.11.190,VisualSearchFaces,2024.2.4,Win32,59.88023952,,,,,,,,1313.0062,1313.121,1313.121,1315.1212,block4,j,1,0,13,13,1,1,1,top_left,neutral,friendly,0.7043,,,,,,,,,,,,,,,,,
,,,,,438778,f,y,r,n,14,0,2025-04-03_14h12.11.190,VisualSearchFaces,2024.2.4,Win32,59.88023952,,,,,,,,1316.1233,1316.2379,1316.2381,1318.2381,block4,j,1,0,14,14,8,1,1,bottom_left,neutral,threatening,0.5399,,,,,,,,,,,,,,,,,
,,,,,438778,f,y,r,n,14,0,2025-04-03_14h12.11.190,VisualSearchFaces,2024.2.4,Win32,59.88023952,,,,,,,,1319.2403,1319.3383,1319.3383,1321.3382,block4,f,1,0,15,15,37,1,0,top_right,threatening,no_target,0.6398,,,,,,,,,,,,,,,,,
,,,,,438778,f,y,r,n,14,0,2025-04-03_14h12.11.190,VisualSearchFaces,2024.2.4,Win32,59.88023952,,,,,,,,1322.3405,1322.4553,1322.4554,1324.4557,block4,f,1,0,16,16,23,1,0,bottom_left,neutral,no_target,0.4663,,,,,,,,,,,,,,,,,
,,,,,438778,f,y,r,n,14,0,2025-04-03_14h12.11.190,VisualSearchFaces,2024.2.4,Win32,59.88023952,,,,,,,,1325.4574,1325.5719,1325.572,1327.572,block4,j,1,0,17,17,13,1,1,bottom_left,friendly,neutral,0.5383,,,,,,,,,,,,,,,,,
,,,,,438778,f,y,r,n,14,0,2025-04-03_14h12.11.190,VisualSearchFaces,2024.2.4,Win32,59.88023952,,,,,,,,1328.5743,1328.6888,1328.6888,1330.6889,block4,f,1,0,18,18,29,1,0,bottom_right,neutral,no_target,0.4221,,,,,,,,,,,,,,,,,
,,,,,438778,f,y,r,n,14,0,2025-04-03_14h12.11.190,VisualSearchFaces,2024.2.4,Win32,59.88023952,,,,,,,,1331.6914,1331.8058,1331.8059,1333.8062,block4,j,1,0,19,19,12,1,1,top_right,friendly,neutral,0.6008,,,,,,,,,,,,,,,,,
,,,,,438778,f,y,r,n,14,0,2025-04-03_14h12.11.190,VisualSearchFaces,2024.2.4,Win32,59.88023952,,,,,,,,1334.8084,1334.9226,1334.9226,1336.9225,block4,j,1,0,20,20,9,1,1,bottom_right,neutral,threatening,0.7748,,,,,,,,,,,,,,,,,
,,,,,438778,f,y,r,n,14,0,2025-04-03_14h12.11.190,VisualSearchFaces,2024.2.4,Win32,59.88023952,,,,,,,,1337.9247,1338.0395,1338.0396,1340.0396,block4,j,1,0,21,21,4,1,1,bottom_right,neutral,friendly,0.4244,,,,,,,,,,,,,,,,,
,,,,,438778,f,y,r,n,14,0,2025-04-03_14h12.11.190,VisualSearchFaces,2024.2.4,Win32,59.88023952,,,,,,,,1341.042,1341.1567,1341.1567,1343.1565,block4,j,1,0,22,22,5,1,1,centre,neutral,threatening,0.4629,,,,,,,,,,,,,,,,,
,,,,,438778,f,y,r,n,14,0,2025-04-03_14h12.11.190,VisualSearchFaces,2024.2.4,Win32,59.88023952,,,,,,,,1344.1587,1344.2731,1344.2731,1346.2733,block4,f,1,0,23,23,30,1,0,centre,friendly,no_target,0.5033,,,,,,,,,,,,,,,,,
,,,,,438778,f,y,r,n,14,0,2025-04-03_14h12.11.190,VisualSearchFaces,2024.2.4,Win32,59.88023952,,,,,,,,1347.2757,1347.3901,1347.3901,1349.3905,block4,j,1,0,24,24,7,1,1,top_right,neutral,threatening,0.4839,,,,,,,,,,,,,,,,,
,,,,,438778,f,y,r,n,14,0,2025-04-03_14h12.11.190,VisualSearchFaces,2024.2.4,Win32,59.88023952,,,,,,,,1350.3932,1350.5073,1350.5074,1352.5069,block4,j,1,0,25,25,10,1,1,centre,friendly,neutral,0.8026,,,,,,,,,,,,,,,,,
,,,,,438778,f,y,r,n,14,0,2025-04-03_14h12.11.190,VisualSearchFaces,2024.2.4,Win32,59.88023952,,,,,,,,1353.5108,1353.624,1353.6241,1355.6243,block4,f,1,0,26,26,22,1,0,top_right,neutral,no_target,0.4703,,,,,,,,,,,,,,,,,
,,,,,438778,f,y,r,n,14,0,2025-04-03_14h12.11.190,VisualSearchFaces,2024.2.4,Win32,59.88023952,,,,,,,,1356.6253,1356.7409,1356.7409,1358.741,block4,j,1,0,27,27,17,1,1,top_right,threatening,neutral,0.5458,,,,,,,,,,,,,,,,,
,,,,,438778,f,y,r,n,14,0,2025-04-03_14h12.11.190,VisualSearchFaces,2024.2.4,Win32,59.88023952,,,,,,,,1359.7437,1359.8577,1359.8577,1361.8577,block4,f,1,0,28,28,39,1,0,bottom_right,threatening,no_target,0.5564,,,,,,,,,,,,,,,,,
,,,,,438778,f,y,r,n,14,0,2025-04-03_14h12.11.190,VisualSearchFaces,2024.2.4,Win32,59.88023952,,,,,,,,1362.8604,1362.9746,1362.9746,1364.9748,block4,j,1,0,29,29,15,1,1,centre,threatening,neutral,0.4627,,,,,,,,,,,,,,,,,
,,,,,438778,f,y,r,n,14,0,2025-04-03_14h12.11.190,VisualSearchFaces,2024.2.4,Win32,59.88023952,,,,,,,,1365.9765,1366.0751,1366.0751,1368.0748,block4,f,1,0,30,30,26,1,0,top_left,neutral,no_target,0.486,,,,,,,,,,,,,,,,,
,,,,,438778,f,y,r,n,14,0,2025-04-03_14h12.11.190,VisualSearchFaces,2024.2.4,Win32,59.88023952,,,,,,,,1369.0771,1369.1915,1369.1915,1371.1915,block4,j,1,0,31,31,19,1,1,bottom_right,threatening,neutral,0.5102,,,,,,,,,,,,,,,,,
,,,,,438778,f,y,r,n,14,0,2025-04-03_14h12.11.190,VisualSearchFaces,2024.2.4,Win32,59.88023952,,,,,,,,1372.1937,1372.3083,1372.3084,1374.3086,block4,f,1,0,32,32,24,1,0,bottom_right,neutral,no_target,0.5391,,,,,,,,,,,,,,,,,
,,,,,438778,f,y,r,n,14,0,2025-04-03_14h12.11.190,VisualSearchFaces,2024.2.4,Win32,59.88023952,,,,,,,,1375.3104,1375.4253,1375.4254,1377.4253,block4,j,1,0,33,33,11,1,1,top_left,friendly,neutral,0.5665,,,,,,,,,,,,,,,,,
,,,,,438778,f,y,r,n,14,0,2025-04-03_14h12.11.190,VisualSearchFaces,2024.2.4,Win32,59.88023952,,,,,,,,1378.4278,1378.5423,1378.5423,1380.5423,block4,f,1,0,34,34,28,1,0,bottom_left,neutral,no_target,0.5121,,,,,,,,,,,,,,,,,
,,,,,438778,f,y,r,n,14,0,2025-04-03_14h12.11.190,VisualSearchFaces,2024.2.4,Win32,59.88023952,,,,,,,,1381.5444,1381.6593,1381.6593,1383.6597,block4,f,1,0,35,35,25,1,0,centre,neutral,no_target,0.3834,,,,,,,,,,,,,,,,,
,,,,,438778,f,y,r,n,14,0,2025-04-03_14h12.11.190,VisualSearchFaces,2024.2.4,Win32,59.88023952,,,,,,,,1384.6618,1384.7759,1384.7759,1386.7759,block4,f,1,0,36,36,32,1,0,top_right,friendly,no_target,0.6021,,,,,,,,,,,,,,,,,
,,,,,438778,f,y,r,n,14,0,2025-04-03_14h12.11.190,VisualSearchFaces,2024.2.4,Win32,59.88023952,,,,,,,,1387.7783,1387.8928,1387.8929,1389.8929,block4,j,1,0,37,37,2,1,1,top_right,neutral,friendly,0.6941,,,,,,,,,,,,,,,,,
,,,,,438778,f,y,r,n,14,0,2025-04-03_14h12.11.190,VisualSearchFaces,2024.2.4,Win32,59.88023952,,,,,,,,1390.8951,1391.0097,1391.0098,1393.0097,block4,f,1,0,38,38,20,1,0,centre,neutral,no_target,0.4549,,,,,,,,,,,,,,,,,
,,,,,438778,f,y,r,n,14,0,2025-04-03_14h12.11.190,VisualSearchFaces,2024.2.4,Win32,59.88023952,,,,,,,,1394.0126,1394.1267,1394.1267,1396.1266,block4,f,1,0,39,39,33,1,0,bottom_left,friendly,no_target,0.5123,,,,,,,,,,,,,,,,,
,,,,,438778,f,y,r,n,14,0,2025-04-03_14h12.11.190,VisualSearchFaces,2024.2.4,Win32,59.88023952,,,,,,,,1397.1292,1397.2436,1397.2437,1399.2438,block4,j,1,1,0,40,12,1,1,top_right,friendly,neutral,0.4852,,,,,,,,,,,,,,,,,
,,,,,438778,f,y,r,n,14,0,2025-04-03_14h12.11.190,VisualSearchFaces,2024.2.4,Win32,59.88023952,,,,,,,,1400.2454,1400.3605,1400.3606,1402.3606,block4,f,1,1,1,41,32,1,0,top_right,friendly,no_target,0.46,,,,,,,,,,,,,,,,,
,,,,,438778,f,y,r,n,14,0,2025-04-03_14h12.11.190,VisualSearchFaces,2024.2.4,Win32,59.88023952,,,,,,,,1403.3618,1403.4773,1403.4773,1405.4772,block4,f,1,1,2,42,25,1,0,centre,neutral,no_target,0.5659,,,,,,,,,,,,,,,,,
,,,,,438778,f,y,r,n,14,0,2025-04-03_14h12.11.190,VisualSearchFaces,2024.2.4,Win32,59.88023952,,,,,,,,1406.4796,1406.5939,1406.594,1408.5941,block4,f,1,1,3,43,34,1,0,bottom_right,friendly,no_target,0.4668,,,,,,,,,,,,,,,,,
,,,,,438778,f,y,r,n,14,0,2025-04-03_14h12.11.190,VisualSearchFaces,2024.2.4,Win32,59.88023952,,,,,,,,1409.5968,1409.7112,1409.7112,1411.7116,block4,j,1,1,4,44,14,1,1,bottom_right,friendly,neutral,0.4336,,,,,,,,,,,,,,,,,
,,,,,438778,f,y,r,n,14,0,2025-04-03_14h12.11.190,VisualSearchFaces,2024.2.4,Win32,59.88023952,,,,,,,,1412.714,1412.8243,1412.8243,1414.8283,block4,j,1,1,5,45,6,1,1,top_left,neutral,threatening,0.7603,,,,,,,,,,,,,,,,,
,,,,,438778,f,y,r,n,14,0,2025-04-03_14h12.11.190,VisualSearchFaces,2024.2.4,Win32,59.88023952,,,,,,,,1415.8132,1415.9125,1415.9125,1417.9124,block4,j,1,1,6,46,4,1,1,bottom_right,neutral,friendly,0.4911,,,,,,,,,,,,,,,,,
,,,,,438778,f,y,r,n,14,0,2025-04-03_14h12.11.190,VisualSearchFaces,2024.2.4,Win32,59.88023952,,,,,,,,1418.9174,1419.0285,1419.0285,1421.0283,block4,f,1,1,7,47,39,1,0,bottom_right,threatening,no_target,0.594,,,,,,,,,,,,,,,,,
,,,,,438778,f,y,r,n,14,0,2025-04-03_14h12.11.190,VisualSearchFaces,2024.2.4,Win32,59.88023952,,,,,,,,1422.03,1422.1452,1422.1452,1424.1453,block4,f,1,1,8,48,22,1,0,top_right,neutral,no_target,0.5131,,,,,,,,,,,,,,,,,
,,,,,438778,f,y,r,n,14,0,2025-04-03_14h12.11.190,VisualSearchFaces,2024.2.4,Win32,59.88023952,,,,,,,,1425.1475,1425.2619,1425.262,1427.2625,block4,f,1,1,9,49,27,1,0,top_right,neutral,no_target,0.4638,,,,,,,,,,,,,,,,,
,,,,,438778,f,y,r,n,14,0,2025-04-03_14h12.11.190,VisualSearchFaces,2024.2.4,Win32,59.88023952,,,,,,,,1428.2643,1428.3788,1428.3788,1430.379,block4,j,1,1,10,50,17,1,1,top_right,threatening,neutral,0.4626,,,,,,,,,,,,,,,,,
,,,,,438778,f,y,r,n,14,0,2025-04-03_14h12.11.190,VisualSearchFaces,2024.2.4,Win32,59.88023952,,,,,,,,1431.3819,1431.4955,1431.4956,1433.4957,block4,j,1,1,11,51,1,1,1,top_left,neutral,friendly,0.4694,,,,,,,,,,,,,,,,,
,,,,,438778,f,y,r,n,14,0,2025-04-03_14h12.11.190,VisualSearchFaces,2024.2.4,Win32,59.88023952,,,,,,,,1434.4976,1434.6128,1434.6129,1436.6131,block4,j,1,1,12,52,3,1,1,bottom_left,neutral,friendly,0.4808,,,,,,,,,,,,,,,,,
,,,,,438778,f,y,r,n,14,0,2025-04-03_14h12.11.190,VisualSearchFaces,2024.2.4,Win32,59.88023952,,,,,,,,1437.6153,1437.7295,1437.7295,1439.7296,block4,f,1,1,13,53,33,1,0,bottom_left,friendly,no_target,0.6591,,,,,,,,,,,,,,,,,
,,,,,438778,f,y,r,n,14,0,2025-04-03_14h12.11.190,VisualSearchFaces,2024.2.4,Win32,59.88023952,,,,,,,,1440.7322,1440.8463,1440.8464,1442.8465,block4,j,1,1,14,54,13,1,1,bottom_left,friendly,neutral,0.5313,,,,,,,,,,,,,,,,,
,,,,,438778,f,y,r,n,14,0,2025-04-03_14h12.11.190,VisualSearchFaces,2024.2.4,Win32,59.88023952,,,,,,,,1443.8486,1443.9467,1443.9468,1445.947,block4,j,1,1,15,55,9,1,1,bottom_right,neutral,threatening,0.4507,,,,,,,,,,,,,,,,,
,,,,,438778,f,y,r,n,14,0,2025-04-03_14h12.11.190,VisualSearchFaces,2024.2.4,Win32,59.88023952,,,,,,,,1446.9501,1447.0635,1447.0635,1449.0637,block4,f,1,1,16,56,38,1,0,bottom_left,threatening,no_target,0.4703,,,,,,,,,,,,,,,,,
,,,,,438778,f,y,r,n,14,0,2025-04-03_14h12.11.190,VisualSearchFaces,2024.2.4,Win32,59.88023952,,,,,,,,1450.0654,1450.1802,1450.1802,1452.1805,block4,j,1,1,17,57,15,1,1,centre,threatening,neutral,0.7398,,,,,,,,,,,,,,,,,
,,,,,438778,f,y,r,n,14,0,2025-04-03_14h12.11.190,VisualSearchFaces,2024.2.4,Win32,59.88023952,,,,,,,,1453.1829,1453.2979,1453.2979,1455.2974,block4,f,1,1,18,58,35,1,0,centre,threatening,no_target,1.1218,,,,,,,,,,,,,,,,,
,,,,,438778,f,y,r,n,14,0,2025-04-03_14h12.11.190,VisualSearchFaces,2024.2.4,Win32,59.88023952,,,,,,,,1456.2994,1456.4144,1456.4144,1458.4149,block4,j,1,1,19,59,7,1,1,top_right,neutral,threatening,0.5229,,,,,,,,,,,,,,,,,
,,,,,438778,f,y,r,n,14,0,2025-04-03_14h12.11.190,VisualSearchFaces,2024.2.4,Win32,59.88023952,,,,,,,,1459.4161,1459.5147,1459.5148,1461.5144,block4,j,1,1,20,60,5,1,1,centre,neutral,threatening,0.5088,,,,,,,,,,,,,,,,,
,,,,,438778,f,y,r,n,14,0,2025-04-03_14h12.11.190,VisualSearchFaces,2024.2.4,Win32,59.88023952,,,,,,,,1462.5161,1462.6312,1462.6312,1464.6312,block4,f,1,1,21,61,21,1,0,top_left,neutral,no_target,0.3537,,,,,,,,,,,,,,,,,
,,,,,438778,f,y,r,n,14,0,2025-04-03_14h12.11.190,VisualSearchFaces,2024.2.4,Win32,59.88023952,,,,,,,,1465.6335,1465.7345,1465.7345,1467.7319,block4,j,1,1,22,62,18,1,1,bottom_left,threatening,neutral,0.5837,,,,,,,,,,,,,,,,,
,,,,,438778,f,y,r,n,14,0,2025-04-03_14h12.11.190,VisualSearchFaces,2024.2.4,Win32,59.88023952,,,,,,,,1468.7338,1468.8486,1468.8487,1470.8485,block4,f,1,1,23,63,30,1,0,centre,friendly,no_target,0.6894,,,,,,,,,,,,,,,,,
,,,,,438778,f,y,r,n,14,0,2025-04-03_14h12.11.190,VisualSearchFaces,2024.2.4,Win32,59.88023952,,,,,,,,1471.8505,1471.9655,1471.9656,1473.9654,block4,j,1,1,24,64,11,1,1,top_left,friendly,neutral,0.5618,,,,,,,,,,,,,,,,,
,,,,,438778,f,y,r,n,14,0,2025-04-03_14h12.11.190,VisualSearchFaces,2024.2.4,Win32,59.88023952,,,,,,,,1474.9676,1475.0819,1475.0819,1477.0824,block4,j,1,1,25,65,2,1,1,top_right,neutral,friendly,0.5057,,,,,,,,,,,,,,,,,
,,,,,438778,f,y,r,n,14,0,2025-04-03_14h12.11.190,VisualSearchFaces,2024.2.4,Win32,59.88023952,,,,,,,,1478.0843,1478.199,1478.199,1480.199,block4,j,1,1,26,66,0,1,1,centre,neutral,friendly,0.4989,,,,,,,,,,,,,,,,,
,,,,,438778,f,y,r,n,14,0,2025-04-03_14h12.11.190,VisualSearchFaces,2024.2.4,Win32,59.88023952,,,,,,,,1481.2012,1481.3159,1481.3159,1483.3158,block4,f,1,1,27,67,29,1,0,bottom_right,neutral,no_target,0.4677,,,,,,,,,,,,,,,,,
,,,,,438778,f,y,r,n,14,0,2025-04-03_14h12.11.190,VisualSearchFaces,2024.2.4,Win32,59.88023952,,,,,,,,1484.3188,1484.4327,1484.4328,1486.4327,block4,f,1,1,28,68,23,1,0,bottom_left,neutral,no_target,0.5069,,,,,,,,,,,,,,,,,
,,,,,438778,f,y,r,n,14,0,2025-04-03_14h12.11.190,VisualSearchFaces,2024.2.4,Win32,59.88023952,,,,,,,,1487.4342,1487.5496,1487.5497,1489.5497,block4,f,1,1,29,69,36,1,0,top_left,threatening,no_target,0.5343,,,,,,,,,,,,,,,,,
,,,,,438778,f,y,r,n,14,0,2025-04-03_14h12.11.190,VisualSearchFaces,2024.2.4,Win32,59.88023952,,,,,,,,1490.5514,1490.6664,1490.6664,1492.6666,block4,j,1,1,30,70,19,1,1,bottom_right,threatening,neutral,0.6396,,,,,,,,,,,,,,,,,
,,,,,438778,f,y,r,n,14,0,2025-04-03_14h12.11.190,VisualSearchFaces,2024.2.4,Win32,59.88023952,,,,,,,,1493.668,1493.7669,1493.7669,1495.7665,block4,f,1,1,31,71,28,1,0,bottom_left,neutral,no_target,0.5324,,,,,,,,,,,,,,,,,
,,,,,438778,f,y,r,n,14,0,2025-04-03_14h12.11.190,VisualSearchFaces,2024.2.4,Win32,59.88023952,,,,,,,,1496.7693,1496.8836,1496.8838,1498.8837,block4,f,1,1,32,72,20,1,0,centre,neutral,no_target,0.4705,,,,,,,,,,,,,,,,,
,,,,,438778,f,y,r,n,14,0,2025-04-03_14h12.11.190,VisualSearchFaces,2024.2.4,Win32,59.88023952,,,,,,,,1499.8861,1500.0005,1500.0006,1502.0008,block4,f,1,1,33,73,26,1,0,top_left,neutral,no_target,0.4028,,,,,,,,,,,,,,,,,
,,,,,438778,f,y,r,n,14,0,2025-04-03_14h12.11.190,VisualSearchFaces,2024.2.4,Win32,59.88023952,,,,,,,,1503.0023,1503.1172,1503.1173,1505.1178,block4,j,1,1,34,74,16,1,1,top_left,threatening,neutral,0.4555,,,,,,,,,,,,,,,,,
,,,,,438778,f,y,r,n,14,0,2025-04-03_14h12.11.190,VisualSearchFaces,2024.2.4,Win32,59.88023952,,,,,,,,1506.1195,1506.2341,1506.2342,1508.2343,block4,j,1,1,35,75,8,1,1,bottom_left,neutral,threatening,0.5431,,,,,,,,,,,,,,,,,
,,,,,438778,f,y,r,n,14,0,2025-04-03_14h12.11.190,VisualSearchFaces,2024.2.4,Win32,59.88023952,,,,,,,,1509.2369,1509.351,1509.3511,1511.351,block4,f,1,1,36,76,31,1,0,top_left,friendly,no_target,0.5475,,,,,,,,,,,,,,,,,
,,,,,438778,f,y,r,n,14,0,2025-04-03_14h12.11.190,VisualSearchFaces,2024.2.4,Win32,59.88023952,,,,,,,,1512.3534,1512.4677,1512.4678,1514.468,block4,f,1,1,37,77,24,1,0,bottom_right,neutral,no_target,0.4796,,,,,,,,,,,,,,,,,
,,,,,438778,f,y,r,n,14,0,2025-04-03_14h12.11.190,VisualSearchFaces,2024.2.4,Win32,59.88023952,,,,,,,,1515.4699,1515.5849,1515.5849,1517.5853,block4,f,1,1,38,78,37,1,0,top_right,threatening,no_target,0.4909,,,,,,,,,,,,,,,,,
,,,,,438778,f,y,r,n,14,0,2025-04-03_14h12.11.190,VisualSearchFaces,2024.2.4,Win32,59.88023952,,,,,,,,1518.5869,1518.7017,1518.7018,1520.7017,block4,j,1,1,39,79,10,1,1,centre,friendly,neutral,0.4775,,,,,,,,,,,,,,,,,
,,,,,438778,f,y,r,n,14,0,2025-04-03_14h12.11.190,VisualSearchFaces,2024.2.4,Win32,59.88023952,,,,,,,,,,,,,,,,,,,,,,,,,,1520.7031,1528.7025,space,7.9733,,1528.7035,1592.5422,they look like faces :D (happy) :/ (eh) >: (mad).,1,[1592.5424999999998],[1592.5424999999998],,,,,
,,,,,438778,f,y,r,n,14,0,2025-04-03_14h12.11.190,VisualSearchFaces,2024.2.4,Win32,59.88023952,,,,,,,,,,,,,,,,,,,,,,,,,,,,,,,,,,,,,1592.5426,1610.7424,space,18.1782,
