Welcome.started,Welcome.stopped,keyboard_space_welcome.keys,keyboard_space_welcome.rt,keyboard_space_welcome.duration,participant,gender,(corrected) normal vision,handedness,exp vse,session,skip_intro,date,expName,psychopyVersion,OS,frameRate,stimulus_exposure.started,stimulus_exposure.stopped,Block_intro.started,Block_intro.stopped,keyboard_space.keys,keyboard_space.rt,keyboard_space.duration,Stimulus.started,Stimulus.stopped,fixation_ending.started,fixation_ending.stopped,block_id,keyboard_response.keys,keyboard_response.corr,keyboard_response.rt,keyboard_response.duration,trials.thisRepN,trials.thisTrialN,trials.thisN,trials.thisIndex,trials.ran,target_presence,target_position,background_emotion,target_emotion,Block_outro.started,Block_outro.stopped,keyboard_space_end.keys,keyboard_space_end.rt,keyboard_space_end.duration,Question_about_stimulus.started,Question_about_stimulus.stopped,textbox_response.text,button.numClicks,button.timesOn,button.timesOff,Thanks.started,Thanks.stopped,keyboard_space_goodbye.keys,keyboard_space_goodbye.rt,keyboard_space_goodbye.duration
0,20.506,space,20.431,,552569,m,y,r,n,11,0,2025-04-03_11h34.04.162,VisualSearchFaces,2024.2.4,Win32,59.95203837,,,,,,,,,,,,,,,,,,,,,,,,,,,,,,,,,,,,,,,,,
,,,,,552569,m,y,r,n,11,0,2025-04-03_11h34.04.162,VisualSearchFaces,2024.2.4,Win32,59.95203837,41.62,44.634,44.648,69.504,space,24.837,,70.499,70.765,70.765,72.764,practice1,f,0,0.685,,0,0,0,2,1,1,top_right,neutral,friendly,,,,,,,,,,,,,,,,
,,,,,552569,m,y,r,n,11,0,2025-04-03_11h34.04.162,VisualSearchFaces,2024.2.4,Win32,59.95203837,,,,,,,,73.766,74.033,74.033,76.031,practice1,f,1,0.563,,0,1,1,27,1,0,top_right,neutral,no_target,,,,,,,,,,,,,,,,
,,,,,552569,m,y,r,n,11,0,2025-04-03_11h34.04.162,VisualSearchFaces,2024.2.4,Win32,59.95203837,,,,,,,,77.033,77.298,77.298,79.297,practice1,j,1,0.871,,0,2,2,17,1,1,top_right,threatening,neutral,,,,,,,,,,,,,,,,
,,,,,552569,m,y,r,n,11,0,2025-04-03_11h34.04.162,VisualSearchFaces,2024.2.4,Win32,59.95203837,,,,,,,,80.298,80.563,80.563,82.563,practice1,f,1,0.366,,0,3,3,33,1,0,bottom_left,friendly,no_target,,,,,,,,,,,,,,,,
,,,,,552569,m,y,r,n,11,0,2025-04-03_11h34.04.162,VisualSearchFaces,2024.2.4,Win32,59.95203837,,,,,,,,83.564,83.829,83.829,85.829,practice1,f,1,0.618,,0,4,4,29,1,0,bottom_right,neutral,no_target,,,,,,,,,,,,,,,,
,,,,,552569,m,y,r,n,11,0,2025-04-03_11h34.04.162,VisualSearchFaces,2024.2.4,Win32,59.95203837,,,,,,,,86.831,87.098,87.098,89.096,practice1,j,1,0.386,,0,5,5,19,1,1,bottom_right,threatening,neutral,,,,,,,,,,,,,,,,
,,,,,552569,m,y,r,n,11,0,2025-04-03_11h34.04.162,VisualSearchFaces,2024.2.4,Win32,59.95203837,,,,,,,,90.097,90.347,90.347,92.345,practice1,j,1,0.527,,0,6,6,13,1,1,bottom_left,friendly,neutral,,,,,,,,,,,,,,,,
,,,,,552569,m,y,r,n,11,0,2025-04-03_11h34.04.162,VisualSearchFaces,2024.2.4,Win32,59.95203837,,,,,,,,93.354,93.613,93.613,95.612,practice1,f,1,0.634,,0,7,7,32,1,0,top_right,friendly,no_target,,,,,,,,,,,,,,,,
,,,,,552569,m,y,r,n,11,0,2025-04-03_11h34.04.162,VisualSearchFaces,2024.2.4,Win32,59.95203837,,,,,,,,96.614,96.868,96.868,98.861,practice1,j,1,0.962,,0,8,8,16,1,1,top_left,threatening,neutral,,,,,,,,,,,,,,,,
,,,,,552569,m,y,r,n,11,0,2025-04-03_11h34.04.162,VisualSearchFaces,2024.2.4,Win32,59.95203837,,,,,,,,99.862,100.127,100.127,102.127,practice1,f,1,0.689,,0,9,9,28,1,0,bottom_left,neutral,no_target,,,,,,,,,,,,,,,,
,,,,,552569,m,y,r,n,11,0,2025-04-03_11h34.04.162,VisualSearchFaces,2024.2.4,Win32,59.95203837,,,,,,,,103.128,103.394,103.394,105.396,practice1,f,0,0.463,,0,10,10,3,1,1,bottom_left,neutral,friendly,,,,,,,,,,,,,,,,
,,,,,552569,m,y,r,n,11,0,2025-04-03_11h34.04.162,VisualSearchFaces,2024.2.4,Win32,59.95203837,,,,,,,,106.396,106.66,106.66,108.66,practice1,j,1,0.811,,0,11,11,14,1,1,bottom_right,friendly,neutral,,,,,,,,,,,,,,,,
,,,,,552569,m,y,r,n,11,0,2025-04-03_11h34.04.162,VisualSearchFaces,2024.2.4,Win32,59.95203837,,,,,,,,109.663,109.926,109.926,111.915,practice1,f,1,0.521,,0,12,12,20,1,0,centre,neutral,no_target,,,,,,,,,,,,,,,,
,,,,,552569,m,y,r,n,11,0,2025-04-03_11h34.04.162,VisualSearchFaces,2024.2.4,Win32,59.95203837,,,,,,,,112.93,113.194,113.194,115.182,practice1,j,0,0.974,,0,13,13,35,1,0,centre,threatening,no_target,,,,,,,,,,,,,,,,
,,,,,552569,m,y,r,n,11,0,2025-04-03_11h34.04.162,VisualSearchFaces,2024.2.4,Win32,59.95203837,,,,,,,,116.193,116.459,116.459,118.459,practice1,j,1,0.664,,0,14,14,10,1,1,centre,friendly,neutral,,,,,,,,,,,,,,,,
,,,,,552569,m,y,r,n,11,0,2025-04-03_11h34.04.162,VisualSearchFaces,2024.2.4,Win32,59.95203837,,,,,,,,119.46,119.726,119.726,121.726,practice1,f,1,0.68,,0,15,15,25,1,0,centre,neutral,no_target,,,,,,,,,,,,,,,,
,,,,,552569,m,y,r,n,11,0,2025-04-03_11h34.04.162,VisualSearchFaces,2024.2.4,Win32,59.95203837,,,,,,,,122.732,122.992,122.992,124.992,practice1,j,1,0.936,,0,16,16,1,1,1,top_left,neutral,friendly,,,,,,,,,,,,,,,,
,,,,,552569,m,y,r,n,11,0,2025-04-03_11h34.04.162,VisualSearchFaces,2024.2.4,Win32,59.95203837,,,,,,,,125.993,126.258,126.258,128.258,practice1,f,1,1.008,,0,17,17,36,1,0,top_left,threatening,no_target,,,,,,,,,,,,,,,,
,,,,,552569,m,y,r,n,11,0,2025-04-03_11h34.04.162,VisualSearchFaces,2024.2.4,Win32,59.95203837,,,,,,,,129.259,129.524,129.524,131.524,practice1,f,1,0.556,,0,18,18,38,1,0,bottom_left,threatening,no_target,,,,,,,,,,,,,,,,
,,,,,552569,m,y,r,n,11,0,2025-04-03_11h34.04.162,VisualSearchFaces,2024.2.4,Win32,59.95203837,,,,,,,,132.525,132.79,132.791,134.791,practice1,f,1,0.482,,0,19,19,23,1,0,bottom_left,neutral,no_target,,,,,,,,,,,,,,,,
,,,,,552569,m,y,r,n,11,0,2025-04-03_11h34.04.162,VisualSearchFaces,2024.2.4,Win32,59.95203837,,,,,,,,135.792,136.057,136.057,138.057,practice1,j,1,0.511,,0,20,20,7,1,1,top_right,neutral,threatening,,,,,,,,,,,,,,,,
,,,,,552569,m,y,r,n,11,0,2025-04-03_11h34.04.162,VisualSearchFaces,2024.2.4,Win32,59.95203837,,,,,,,,139.057,139.307,139.307,141.307,practice1,j,1,0.72,,0,21,21,8,1,1,bottom_left,neutral,threatening,,,,,,,,,,,,,,,,
,,,,,552569,m,y,r,n,11,0,2025-04-03_11h34.04.162,VisualSearchFaces,2024.2.4,Win32,59.95203837,,,,,,,,142.309,142.573,142.573,144.573,practice1,f,1,0.68,,0,22,22,31,1,0,top_left,friendly,no_target,,,,,,,,,,,,,,,,
,,,,,552569,m,y,r,n,11,0,2025-04-03_11h34.04.162,VisualSearchFaces,2024.2.4,Win32,59.95203837,,,,,,,,145.578,145.839,145.839,147.839,practice1,j,1,0.461,,0,23,23,0,1,1,centre,neutral,friendly,,,,,,,,,,,,,,,,
,,,,,552569,m,y,r,n,11,0,2025-04-03_11h34.04.162,VisualSearchFaces,2024.2.4,Win32,59.95203837,,,,,,,,148.839,149.089,149.089,151.08,practice1,f,1,0.793,,0,24,24,34,1,0,bottom_right,friendly,no_target,,,,,,,,,,,,,,,,
,,,,,552569,m,y,r,n,11,0,2025-04-03_11h34.04.162,VisualSearchFaces,2024.2.4,Win32,59.95203837,,,,,,,,152.09,152.355,152.355,154.355,practice1,f,1,0.576,,0,25,25,26,1,0,top_left,neutral,no_target,,,,,,,,,,,,,,,,
,,,,,552569,m,y,r,n,11,0,2025-04-03_11h34.04.162,VisualSearchFaces,2024.2.4,Win32,59.95203837,,,,,,,,155.358,155.623,155.623,157.626,practice1,f,0,0.736,,0,26,26,11,1,1,top_left,friendly,neutral,,,,,,,,,,,,,,,,
,,,,,552569,m,y,r,n,11,0,2025-04-03_11h34.04.162,VisualSearchFaces,2024.2.4,Win32,59.95203837,,,,,,,,158.623,158.888,158.888,160.889,practice1,f,1,0.465,,0,27,27,39,1,0,bottom_right,threatening,no_target,,,,,,,,,,,,,,,,
,,,,,552569,m,y,r,n,11,0,2025-04-03_11h34.04.162,VisualSearchFaces,2024.2.4,Win32,59.95203837,,,,,,,,161.888,162.154,162.154,164.154,practice1,f,1,0.424,,0,28,28,22,1,0,top_right,neutral,no_target,,,,,,,,,,,,,,,,
,,,,,552569,m,y,r,n,11,0,2025-04-03_11h34.04.162,VisualSearchFaces,2024.2.4,Win32,59.95203837,,,,,,,,165.154,165.42,165.42,167.42,practice1,j,1,0.387,,0,29,29,6,1,1,top_left,neutral,threatening,,,,,,,,,,,,,,,,
,,,,,552569,m,y,r,n,11,0,2025-04-03_11h34.04.162,VisualSearchFaces,2024.2.4,Win32,59.95203837,,,,,,,,168.422,168.687,168.687,170.686,practice1,f,1,0.547,,0,30,30,21,1,0,top_left,neutral,no_target,,,,,,,,,,,,,,,,
,,,,,552569,m,y,r,n,11,0,2025-04-03_11h34.04.162,VisualSearchFaces,2024.2.4,Win32,59.95203837,,,,,,,,171.687,171.939,171.939,173.938,practice1,j,1,0.71,,0,31,31,12,1,1,top_right,friendly,neutral,,,,,,,,,,,,,,,,
,,,,,552569,m,y,r,n,11,0,2025-04-03_11h34.04.162,VisualSearchFaces,2024.2.4,Win32,59.95203837,,,,,,,,174.94,175.191,175.191,177.189,practice1,j,1,0.526,,0,32,32,4,1,1,bottom_right,neutral,friendly,,,,,,,,,,,,,,,,
,,,,,552569,m,y,r,n,11,0,2025-04-03_11h34.04.162,VisualSearchFaces,2024.2.4,Win32,59.95203837,,,,,,,,178.186,178.452,178.452,180.451,practice1,f,1,0.955,,0,33,33,30,1,0,centre,friendly,no_target,,,,,,,,,,,,,,,,
,,,,,552569,m,y,r,n,11,0,2025-04-03_11h34.04.162,VisualSearchFaces,2024.2.4,Win32,59.95203837,,,,,,,,181.452,181.718,181.718,183.717,practice1,j,1,0.624,,0,34,34,18,1,1,bottom_left,threatening,neutral,,,,,,,,,,,,,,,,
,,,,,552569,m,y,r,n,11,0,2025-04-03_11h34.04.162,VisualSearchFaces,2024.2.4,Win32,59.95203837,,,,,,,,184.718,184.969,184.969,186.967,practice1,f,1,0.609,,0,35,35,24,1,0,bottom_right,neutral,no_target,,,,,,,,,,,,,,,,
,,,,,552569,m,y,r,n,11,0,2025-04-03_11h34.04.162,VisualSearchFaces,2024.2.4,Win32,59.95203837,,,,,,,,187.973,188.234,188.234,190.234,practice1,f,1,0.786,,0,36,36,37,1,0,top_right,threatening,no_target,,,,,,,,,,,,,,,,
,,,,,552569,m,y,r,n,11,0,2025-04-03_11h34.04.162,VisualSearchFaces,2024.2.4,Win32,59.95203837,,,,,,,,191.235,191.5,191.5,193.5,practice1,j,1,0.591,,0,37,37,9,1,1,bottom_right,neutral,threatening,,,,,,,,,,,,,,,,
,,,,,552569,m,y,r,n,11,0,2025-04-03_11h34.04.162,VisualSearchFaces,2024.2.4,Win32,59.95203837,,,,,,,,194.502,194.767,194.767,196.771,practice1,j,1,0.778,,0,38,38,15,1,1,centre,threatening,neutral,,,,,,,,,,,,,,,,
,,,,,552569,m,y,r,n,11,0,2025-04-03_11h34.04.162,VisualSearchFaces,2024.2.4,Win32,59.95203837,,,,,,,,197.768,198.038,198.038,200.036,practice1,j,1,0.526,,0,39,39,5,1,1,centre,neutral,threatening,,,,,,,,,,,,,,,,
,,,,,552569,m,y,r,n,11,0,2025-04-03_11h34.04.162,VisualSearchFaces,2024.2.4,Win32,59.95203837,,,242.072,284.506,space,42.392,,285.508,285.622,285.622,287.627,practice2,f,1,0.612,,0,0,0,23,1,0,bottom_left,neutral,no_target,200.036,242.068,space,42.001,,,,,,,,,,,,
,,,,,552569,m,y,r,n,11,0,2025-04-03_11h34.04.162,VisualSearchFaces,2024.2.4,Win32,59.95203837,,,,,,,,288.623,288.722,288.723,290.722,practice2,j,1,0.48,,0,1,1,2,1,1,top_right,neutral,friendly,,,,,,,,,,,,,,,,
,,,,,552569,m,y,r,n,11,0,2025-04-03_11h34.04.162,VisualSearchFaces,2024.2.4,Win32,59.95203837,,,,,,,,291.724,291.839,291.839,293.838,practice2,f,1,0.848,,0,2,2,39,1,0,bottom_right,threatening,no_target,,,,,,,,,,,,,,,,
,,,,,552569,m,y,r,n,11,0,2025-04-03_11h34.04.162,VisualSearchFaces,2024.2.4,Win32,59.95203837,,,,,,,,294.843,294.955,294.955,296.955,practice2,f,1,0.763,,0,3,3,20,1,0,centre,neutral,no_target,,,,,,,,,,,,,,,,
,,,,,552569,m,y,r,n,11,0,2025-04-03_11h34.04.162,VisualSearchFaces,2024.2.4,Win32,59.95203837,,,,,,,,297.956,298.055,298.055,300.054,practice2,j,0,0.655,,0,4,4,31,1,0,top_left,friendly,no_target,,,,,,,,,,,,,,,,
,,,,,552569,m,y,r,n,11,0,2025-04-03_11h34.04.162,VisualSearchFaces,2024.2.4,Win32,59.95203837,,,,,,,,301.059,301.171,301.171,303.171,practice2,j,1,0.689,,0,5,5,11,1,1,top_left,friendly,neutral,,,,,,,,,,,,,,,,
,,,,,552569,m,y,r,n,11,0,2025-04-03_11h34.04.162,VisualSearchFaces,2024.2.4,Win32,59.95203837,,,,,,,,304.172,304.287,304.287,306.288,practice2,j,1,0.652,,0,6,6,6,1,1,top_left,neutral,threatening,,,,,,,,,,,,,,,,
,,,,,552569,m,y,r,n,11,0,2025-04-03_11h34.04.162,VisualSearchFaces,2024.2.4,Win32,59.95203837,,,,,,,,307.287,307.388,307.388,309.387,practice2,f,0,0.491,,0,7,7,8,1,1,bottom_left,neutral,threatening,,,,,,,,,,,,,,,,
,,,,,552569,m,y,r,n,11,0,2025-04-03_11h34.04.162,VisualSearchFaces,2024.2.4,Win32,59.95203837,,,,,,,,310.389,310.503,310.503,312.492,practice2,f,1,0.919,,0,8,8,36,1,0,top_left,threatening,no_target,,,,,,,,,,,,,,,,
,,,,,552569,m,y,r,n,11,0,2025-04-03_11h34.04.162,VisualSearchFaces,2024.2.4,Win32,59.95203837,,,,,,,,313.504,313.612,313.612,315.602,practice2,f,1,0.671,,0,9,9,22,1,0,top_right,neutral,no_target,,,,,,,,,,,,,,,,
,,,,,552569,m,y,r,n,11,0,2025-04-03_11h34.04.162,VisualSearchFaces,2024.2.4,Win32,59.95203837,,,,,,,,316.603,316.706,316.706,318.703,practice2,f,1,0.543,,0,10,10,21,1,0,top_left,neutral,no_target,,,,,,,,,,,,,,,,
,,,,,552569,m,y,r,n,11,0,2025-04-03_11h34.04.162,VisualSearchFaces,2024.2.4,Win32,59.95203837,,,,,,,,319.704,319.82,319.82,321.819,practice2,j,1,0.547,,0,11,11,9,1,1,bottom_right,neutral,threatening,,,,,,,,,,,,,,,,
,,,,,552569,m,y,r,n,11,0,2025-04-03_11h34.04.162,VisualSearchFaces,2024.2.4,Win32,59.95203837,,,,,,,,322.819,322.919,322.919,324.918,practice2,f,1,0.898,,0,12,12,34,1,0,bottom_right,friendly,no_target,,,,,,,,,,,,,,,,
,,,,,552569,m,y,r,n,11,0,2025-04-03_11h34.04.162,VisualSearchFaces,2024.2.4,Win32,59.95203837,,,,,,,,325.921,326.034,326.035,328.034,practice2,j,1,0.573,,0,13,13,16,1,1,top_left,threatening,neutral,,,,,,,,,,,,,,,,
,,,,,552569,m,y,r,n,11,0,2025-04-03_11h34.04.162,VisualSearchFaces,2024.2.4,Win32,59.95203837,,,,,,,,329.035,329.134,329.135,331.135,practice2,j,1,0.932,,0,14,14,3,1,1,bottom_left,neutral,friendly,,,,,,,,,,,,,,,,
,,,,,552569,m,y,r,n,11,0,2025-04-03_11h34.04.162,VisualSearchFaces,2024.2.4,Win32,59.95203837,,,,,,,,332.134,332.237,332.237,334.234,practice2,j,1,0.611,,0,15,15,18,1,1,bottom_left,threatening,neutral,,,,,,,,,,,,,,,,
,,,,,552569,m,y,r,n,11,0,2025-04-03_11h34.04.162,VisualSearchFaces,2024.2.4,Win32,59.95203837,,,,,,,,335.234,335.333,335.333,337.333,practice2,f,1,0.81,,0,16,16,33,1,0,bottom_left,friendly,no_target,,,,,,,,,,,,,,,,
,,,,,552569,m,y,r,n,11,0,2025-04-03_11h34.04.162,VisualSearchFaces,2024.2.4,Win32,59.95203837,,,,,,,,338.324,338.433,338.433,340.433,practice2,j,1,0.698,,0,17,17,0,1,1,centre,neutral,friendly,,,,,,,,,,,,,,,,
,,,,,552569,m,y,r,n,11,0,2025-04-03_11h34.04.162,VisualSearchFaces,2024.2.4,Win32,59.95203837,,,,,,,,341.434,341.533,341.533,343.532,practice2,f,1,0.789,,0,18,18,30,1,0,centre,friendly,no_target,,,,,,,,,,,,,,,,
,,,,,552569,m,y,r,n,11,0,2025-04-03_11h34.04.162,VisualSearchFaces,2024.2.4,Win32,59.95203837,,,,,,,,344.533,344.648,344.649,346.649,practice2,f,1,0.817,,0,19,19,38,1,0,bottom_left,threatening,no_target,,,,,,,,,,,,,,,,
,,,,,552569,m,y,r,n,11,0,2025-04-03_11h34.04.162,VisualSearchFaces,2024.2.4,Win32,59.95203837,,,,,,,,347.649,347.748,347.748,349.748,practice2,j,1,0.74,,0,20,20,19,1,1,bottom_right,threatening,neutral,,,,,,,,,,,,,,,,
,,,,,552569,m,y,r,n,11,0,2025-04-03_11h34.04.162,VisualSearchFaces,2024.2.4,Win32,59.95203837,,,,,,,,350.75,350.865,350.865,352.865,practice2,f,1,0.69,,0,21,21,27,1,0,top_right,neutral,no_target,,,,,,,,,,,,,,,,
,,,,,552569,m,y,r,n,11,0,2025-04-03_11h34.04.162,VisualSearchFaces,2024.2.4,Win32,59.95203837,,,,,,,,353.867,353.982,353.982,355.982,practice2,j,1,0.6,,0,22,22,13,1,1,bottom_left,friendly,neutral,,,,,,,,,,,,,,,,
,,,,,552569,m,y,r,n,11,0,2025-04-03_11h34.04.162,VisualSearchFaces,2024.2.4,Win32,59.95203837,,,,,,,,356.981,357.084,357.084,359.088,practice2,f,1,0.743,,0,23,23,26,1,0,top_left,neutral,no_target,,,,,,,,,,,,,,,,
,,,,,552569,m,y,r,n,11,0,2025-04-03_11h34.04.162,VisualSearchFaces,2024.2.4,Win32,59.95203837,,,,,,,,360.084,360.197,360.197,362.197,practice2,j,0,1.656,,0,24,24,35,1,0,centre,threatening,no_target,,,,,,,,,,,,,,,,
,,,,,552569,m,y,r,n,11,0,2025-04-03_11h34.04.162,VisualSearchFaces,2024.2.4,Win32,59.95203837,,,,,,,,363.198,363.314,363.314,365.313,practice2,j,1,1.016,,0,25,25,1,1,1,top_left,neutral,friendly,,,,,,,,,,,,,,,,
,,,,,552569,m,y,r,n,11,0,2025-04-03_11h34.04.162,VisualSearchFaces,2024.2.4,Win32,59.95203837,,,,,,,,366.314,366.415,366.415,368.412,practice2,j,1,1.188,,0,26,26,17,1,1,top_right,threatening,neutral,,,,,,,,,,,,,,,,
,,,,,552569,m,y,r,n,11,0,2025-04-03_11h34.04.162,VisualSearchFaces,2024.2.4,Win32,59.95203837,,,,,,,,369.414,369.516,369.517,371.513,practice2,j,1,0.573,,0,27,27,10,1,1,centre,friendly,neutral,,,,,,,,,,,,,,,,
,,,,,552569,m,y,r,n,11,0,2025-04-03_11h34.04.162,VisualSearchFaces,2024.2.4,Win32,59.95203837,,,,,,,,372.513,372.613,372.613,374.612,practice2,j,1,0.543,,0,28,28,12,1,1,top_right,friendly,neutral,,,,,,,,,,,,,,,,
,,,,,552569,m,y,r,n,11,0,2025-04-03_11h34.04.162,VisualSearchFaces,2024.2.4,Win32,59.95203837,,,,,,,,375.613,375.712,375.712,377.712,practice2,j,1,0.599,,0,29,29,5,1,1,centre,neutral,threatening,,,,,,,,,,,,,,,,
,,,,,552569,m,y,r,n,11,0,2025-04-03_11h34.04.162,VisualSearchFaces,2024.2.4,Win32,59.95203837,,,,,,,,378.712,378.812,378.812,380.814,practice2,f,1,0.666,,0,30,30,25,1,0,centre,neutral,no_target,,,,,,,,,,,,,,,,
,,,,,552569,m,y,r,n,11,0,2025-04-03_11h34.04.162,VisualSearchFaces,2024.2.4,Win32,59.95203837,,,,,,,,381.816,381.917,381.917,383.911,practice2,j,0,1.104,,0,31,31,32,1,0,top_right,friendly,no_target,,,,,,,,,,,,,,,,
,,,,,552569,m,y,r,n,11,0,2025-04-03_11h34.04.162,VisualSearchFaces,2024.2.4,Win32,59.95203837,,,,,,,,384.912,385.011,385.011,387.01,practice2,j,0,1.162,,0,32,32,37,1,0,top_right,threatening,no_target,,,,,,,,,,,,,,,,
,,,,,552569,m,y,r,n,11,0,2025-04-03_11h34.04.162,VisualSearchFaces,2024.2.4,Win32,59.95203837,,,,,,,,388.011,388.112,388.112,390.11,practice2,f,1,0.564,,0,33,33,29,1,0,bottom_right,neutral,no_target,,,,,,,,,,,,,,,,
,,,,,552569,m,y,r,n,11,0,2025-04-03_11h34.04.162,VisualSearchFaces,2024.2.4,Win32,59.95203837,,,,,,,,391.111,391.211,391.211,393.21,practice2,f,1,0.558,,0,34,34,24,1,0,bottom_right,neutral,no_target,,,,,,,,,,,,,,,,
,,,,,552569,m,y,r,n,11,0,2025-04-03_11h34.04.162,VisualSearchFaces,2024.2.4,Win32,59.95203837,,,,,,,,394.211,394.311,394.311,396.309,practice2,f,0,0.637,,0,35,35,15,1,1,centre,threatening,neutral,,,,,,,,,,,,,,,,
,,,,,552569,m,y,r,n,11,0,2025-04-03_11h34.04.162,VisualSearchFaces,2024.2.4,Win32,59.95203837,,,,,,,,397.311,397.409,397.409,399.409,practice2,j,1,0.673,,0,36,36,4,1,1,bottom_right,neutral,friendly,,,,,,,,,,,,,,,,
,,,,,552569,m,y,r,n,11,0,2025-04-03_11h34.04.162,VisualSearchFaces,2024.2.4,Win32,59.95203837,,,,,,,,400.41,400.51,400.51,402.509,practice2,f,1,0.561,,0,37,37,28,1,0,bottom_left,neutral,no_target,,,,,,,,,,,,,,,,
,,,,,552569,m,y,r,n,11,0,2025-04-03_11h34.04.162,VisualSearchFaces,2024.2.4,Win32,59.95203837,,,,,,,,403.51,403.61,403.61,405.61,practice2,j,1,0.856,,0,38,38,7,1,1,top_right,neutral,threatening,,,,,,,,,,,,,,,,
,,,,,552569,m,y,r,n,11,0,2025-04-03_11h34.04.162,VisualSearchFaces,2024.2.4,Win32,59.95203837,,,,,,,,406.61,406.711,406.711,408.711,practice2,j,1,1.614,,0,39,39,14,1,1,bottom_right,friendly,neutral,,,,,,,,,,,,,,,,
,,,,,552569,m,y,r,n,11,0,2025-04-03_11h34.04.162,VisualSearchFaces,2024.2.4,Win32,59.95203837,,,413.826,422.165,space,8.311,,423.158,423.273,423.273,425.273,block1,f,1,0.667,,0,0,0,24,1,0,bottom_right,neutral,no_target,408.712,413.825,space,5.082,,,,,,,,,,,,
,,,,,552569,m,y,r,n,11,0,2025-04-03_11h34.04.162,VisualSearchFaces,2024.2.4,Win32,59.95203837,,,,,,,,426.274,426.378,426.378,428.372,block1,j,1,1.02,,0,1,1,18,1,1,bottom_left,threatening,neutral,,,,,,,,,,,,,,,,
,,,,,552569,m,y,r,n,11,0,2025-04-03_11h34.04.162,VisualSearchFaces,2024.2.4,Win32,59.95203837,,,,,,,,429.373,429.482,429.482,431.472,block1,j,1,0.562,,0,2,2,3,1,1,bottom_left,neutral,friendly,,,,,,,,,,,,,,,,
,,,,,552569,m,y,r,n,11,0,2025-04-03_11h34.04.162,VisualSearchFaces,2024.2.4,Win32,59.95203837,,,,,,,,432.473,432.572,432.572,434.578,block1,j,1,0.905,,0,3,3,4,1,1,bottom_right,neutral,friendly,,,,,,,,,,,,,,,,
,,,,,552569,m,y,r,n,11,0,2025-04-03_11h34.04.162,VisualSearchFaces,2024.2.4,Win32,59.95203837,,,,,,,,435.573,435.671,435.671,437.672,block1,f,1,0.653,,0,4,4,33,1,0,bottom_left,friendly,no_target,,,,,,,,,,,,,,,,
,,,,,552569,m,y,r,n,11,0,2025-04-03_11h34.04.162,VisualSearchFaces,2024.2.4,Win32,59.95203837,,,,,,,,438.675,438.787,438.787,440.788,block1,f,1,0.627,,0,5,5,23,1,0,bottom_left,neutral,no_target,,,,,,,,,,,,,,,,
,,,,,552569,m,y,r,n,11,0,2025-04-03_11h34.04.162,VisualSearchFaces,2024.2.4,Win32,59.95203837,,,,,,,,441.776,441.887,441.887,443.887,block1,f,1,0.461,,0,6,6,29,1,0,bottom_right,neutral,no_target,,,,,,,,,,,,,,,,
,,,,,552569,m,y,r,n,11,0,2025-04-03_11h34.04.162,VisualSearchFaces,2024.2.4,Win32,59.95203837,,,,,,,,444.888,444.987,444.987,446.987,block1,j,1,0.49,,0,7,7,2,1,1,top_right,neutral,friendly,,,,,,,,,,,,,,,,
,,,,,552569,m,y,r,n,11,0,2025-04-03_11h34.04.162,VisualSearchFaces,2024.2.4,Win32,59.95203837,,,,,,,,447.991,448.103,448.103,450.104,block1,f,1,0.706,,0,8,8,32,1,0,top_right,friendly,no_target,,,,,,,,,,,,,,,,
,,,,,552569,m,y,r,n,11,0,2025-04-03_11h34.04.162,VisualSearchFaces,2024.2.4,Win32,59.95203837,,,,,,,,451.093,451.203,451.203,453.203,block1,j,1,0.702,,0,9,9,1,1,1,top_left,neutral,friendly,,,,,,,,,,,,,,,,
,,,,,552569,m,y,r,n,11,0,2025-04-03_11h34.04.162,VisualSearchFaces,2024.2.4,Win32,59.95203837,,,,,,,,454.205,454.319,454.319,456.308,block1,f,0,0.931,,0,10,10,13,1,1,bottom_left,friendly,neutral,,,,,,,,,,,,,,,,
,,,,,552569,m,y,r,n,11,0,2025-04-03_11h34.04.162,VisualSearchFaces,2024.2.4,Win32,59.95203837,,,,,,,,457.32,457.435,457.435,459.436,block1,f,1,0.959,,0,11,11,27,1,0,top_right,neutral,no_target,,,,,,,,,,,,,,,,
,,,,,552569,m,y,r,n,11,0,2025-04-03_11h34.04.162,VisualSearchFaces,2024.2.4,Win32,59.95203837,,,,,,,,460.437,460.54,460.54,462.535,block1,j,1,0.625,,0,12,12,0,1,1,centre,neutral,friendly,,,,,,,,,,,,,,,,
,,,,,552569,m,y,r,n,11,0,2025-04-03_11h34.04.162,VisualSearchFaces,2024.2.4,Win32,59.95203837,,,,,,,,463.536,463.652,463.652,465.651,block1,j,0,0.939,,0,13,13,38,1,0,bottom_left,threatening,no_target,,,,,,,,,,,,,,,,
,,,,,552569,m,y,r,n,11,0,2025-04-03_11h34.04.162,VisualSearchFaces,2024.2.4,Win32,59.95203837,,,,,,,,466.652,466.751,466.751,468.752,block1,j,1,0.653,,0,14,14,14,1,1,bottom_right,friendly,neutral,,,,,,,,,,,,,,,,
,,,,,552569,m,y,r,n,11,0,2025-04-03_11h34.04.162,VisualSearchFaces,2024.2.4,Win32,59.95203837,,,,,,,,469.754,469.868,469.868,471.867,block1,j,1,0.989,,0,15,15,16,1,1,top_left,threatening,neutral,,,,,,,,,,,,,,,,
,,,,,552569,m,y,r,n,11,0,2025-04-03_11h34.04.162,VisualSearchFaces,2024.2.4,Win32,59.95203837,,,,,,,,472.868,472.972,472.972,474.968,block1,f,1,0.725,,0,16,16,30,1,0,centre,friendly,no_target,,,,,,,,,,,,,,,,
,,,,,552569,m,y,r,n,11,0,2025-04-03_11h34.04.162,VisualSearchFaces,2024.2.4,Win32,59.95203837,,,,,,,,475.968,476.068,476.068,478.066,block1,j,1,0.744,,0,17,17,10,1,1,centre,friendly,neutral,,,,,,,,,,,,,,,,
,,,,,552569,m,y,r,n,11,0,2025-04-03_11h34.04.162,VisualSearchFaces,2024.2.4,Win32,59.95203837,,,,,,,,479.072,479.184,479.184,481.182,block1,j,1,0.799,,0,18,18,7,1,1,top_right,neutral,threatening,,,,,,,,,,,,,,,,
,,,,,552569,m,y,r,n,11,0,2025-04-03_11h34.04.162,VisualSearchFaces,2024.2.4,Win32,59.95203837,,,,,,,,482.185,482.3,482.3,484.301,block1,j,1,1.183,,0,19,19,11,1,1,top_left,friendly,neutral,,,,,,,,,,,,,,,,
,,,,,552569,m,y,r,n,11,0,2025-04-03_11h34.04.162,VisualSearchFaces,2024.2.4,Win32,59.95203837,,,,,,,,485.3,485.399,485.399,487.399,block1,f,1,0.787,,0,20,20,37,1,0,top_right,threatening,no_target,,,,,,,,,,,,,,,,
,,,,,552569,m,y,r,n,11,0,2025-04-03_11h34.04.162,VisualSearchFaces,2024.2.4,Win32,59.95203837,,,,,,,,488.401,488.506,488.506,490.499,block1,f,1,0.687,,0,21,21,20,1,0,centre,neutral,no_target,,,,,,,,,,,,,,,,
,,,,,552569,m,y,r,n,11,0,2025-04-03_11h34.04.162,VisualSearchFaces,2024.2.4,Win32,59.95203837,,,,,,,,491.5,491.614,491.615,493.618,block1,f,1,0.553,,0,22,22,22,1,0,top_right,neutral,no_target,,,,,,,,,,,,,,,,
,,,,,552569,m,y,r,n,11,0,2025-04-03_11h34.04.162,VisualSearchFaces,2024.2.4,Win32,59.95203837,,,,,,,,494.615,494.714,494.714,496.714,block1,f,1,0.575,,0,23,23,21,1,0,top_left,neutral,no_target,,,,,,,,,,,,,,,,
,,,,,552569,m,y,r,n,11,0,2025-04-03_11h34.04.162,VisualSearchFaces,2024.2.4,Win32,59.95203837,,,,,,,,497.715,497.814,497.815,499.814,block1,j,1,0.683,,0,24,24,19,1,1,bottom_right,threatening,neutral,,,,,,,,,,,,,,,,
,,,,,552569,m,y,r,n,11,0,2025-04-03_11h34.04.162,VisualSearchFaces,2024.2.4,Win32,59.95203837,,,,,,,,500.815,500.931,500.931,502.93,block1,j,1,0.536,,0,25,25,9,1,1,bottom_right,neutral,threatening,,,,,,,,,,,,,,,,
,,,,,552569,m,y,r,n,11,0,2025-04-03_11h34.04.162,VisualSearchFaces,2024.2.4,Win32,59.95203837,,,,,,,,503.931,504.036,504.036,506.03,block1,f,0,1.106,,0,26,26,17,1,1,top_right,threatening,neutral,,,,,,,,,,,,,,,,
,,,,,552569,m,y,r,n,11,0,2025-04-03_11h34.04.162,VisualSearchFaces,2024.2.4,Win32,59.95203837,,,,,,,,507.031,507.13,507.13,509.131,block1,j,1,1.235,,0,27,27,8,1,1,bottom_left,neutral,threatening,,,,,,,,,,,,,,,,
,,,,,552569,m,y,r,n,11,0,2025-04-03_11h34.04.162,VisualSearchFaces,2024.2.4,Win32,59.95203837,,,,,,,,510.134,510.246,510.246,512.245,block1,j,0,1.143,,0,28,28,35,1,0,centre,threatening,no_target,,,,,,,,,,,,,,,,
,,,,,552569,m,y,r,n,11,0,2025-04-03_11h34.04.162,VisualSearchFaces,2024.2.4,Win32,59.95203837,,,,,,,,513.247,513.346,513.346,515.346,block1,f,1,0.541,,0,29,29,26,1,0,top_left,neutral,no_target,,,,,,,,,,,,,,,,
,,,,,552569,m,y,r,n,11,0,2025-04-03_11h34.04.162,VisualSearchFaces,2024.2.4,Win32,59.95203837,,,,,,,,516.347,516.447,516.447,518.445,block1,j,0,1.01,,0,30,30,36,1,0,top_left,threatening,no_target,,,,,,,,,,,,,,,,
,,,,,552569,m,y,r,n,11,0,2025-04-03_11h34.04.162,VisualSearchFaces,2024.2.4,Win32,59.95203837,,,,,,,,519.446,519.545,519.545,521.546,block1,j,1,0.634,,0,31,31,6,1,1,top_left,neutral,threatening,,,,,,,,,,,,,,,,
,,,,,552569,m,y,r,n,11,0,2025-04-03_11h34.04.162,VisualSearchFaces,2024.2.4,Win32,59.95203837,,,,,,,,522.546,522.646,522.646,524.644,block1,j,1,0.647,,0,32,32,5,1,1,centre,neutral,threatening,,,,,,,,,,,,,,,,
,,,,,552569,m,y,r,n,11,0,2025-04-03_11h34.04.162,VisualSearchFaces,2024.2.4,Win32,59.95203837,,,,,,,,525.646,525.761,525.761,527.761,block1,j,1,1.225,,0,33,33,12,1,1,top_right,friendly,neutral,,,,,,,,,,,,,,,,
,,,,,552569,m,y,r,n,11,0,2025-04-03_11h34.04.162,VisualSearchFaces,2024.2.4,Win32,59.95203837,,,,,,,,528.75,528.861,528.861,530.86,block1,f,1,0.591,,0,34,34,25,1,0,centre,neutral,no_target,,,,,,,,,,,,,,,,
,,,,,552569,m,y,r,n,11,0,2025-04-03_11h34.04.162,VisualSearchFaces,2024.2.4,Win32,59.95203837,,,,,,,,531.862,531.977,531.977,533.982,block1,f,1,0.575,,0,35,35,28,1,0,bottom_left,neutral,no_target,,,,,,,,,,,,,,,,
,,,,,552569,m,y,r,n,11,0,2025-04-03_11h34.04.162,VisualSearchFaces,2024.2.4,Win32,59.95203837,,,,,,,,534.979,535.093,535.093,537.092,block1,j,0,0.767,,0,36,36,34,1,0,bottom_right,friendly,no_target,,,,,,,,,,,,,,,,
,,,,,552569,m,y,r,n,11,0,2025-04-03_11h34.04.162,VisualSearchFaces,2024.2.4,Win32,59.95203837,,,,,,,,538.082,538.238,538.238,540.242,block1,f,1,1.016,,0,37,37,39,1,0,bottom_right,threatening,no_target,,,,,,,,,,,,,,,,
,,,,,552569,m,y,r,n,11,0,2025-04-03_11h34.04.162,VisualSearchFaces,2024.2.4,Win32,59.95203837,,,,,,,,541.243,541.342,541.342,543.343,block1,j,1,0.769,,0,38,38,15,1,1,centre,threatening,neutral,,,,,,,,,,,,,,,,
,,,,,552569,m,y,r,n,11,0,2025-04-03_11h34.04.162,VisualSearchFaces,2024.2.4,Win32,59.95203837,,,,,,,,544.344,544.442,544.442,546.443,block1,f,1,1.055,,0,39,39,31,1,0,top_left,friendly,no_target,,,,,,,,,,,,,,,,
,,,,,552569,m,y,r,n,11,0,2025-04-03_11h34.04.162,VisualSearchFaces,2024.2.4,Win32,59.95203837,,,,,,,,547.443,547.544,547.544,549.543,block1,j,1,0.826,,1,0,40,18,1,1,bottom_left,threatening,neutral,,,,,,,,,,,,,,,,
,,,,,552569,m,y,r,n,11,0,2025-04-03_11h34.04.162,VisualSearchFaces,2024.2.4,Win32,59.95203837,,,,,,,,550.542,550.643,550.643,552.641,block1,j,1,1.174,,1,1,41,12,1,1,top_right,friendly,neutral,,,,,,,,,,,,,,,,
,,,,,552569,m,y,r,n,11,0,2025-04-03_11h34.04.162,VisualSearchFaces,2024.2.4,Win32,59.95203837,,,,,,,,553.642,553.758,553.758,555.757,block1,j,1,0.655,,1,2,42,4,1,1,bottom_right,neutral,friendly,,,,,,,,,,,,,,,,
,,,,,552569,m,y,r,n,11,0,2025-04-03_11h34.04.162,VisualSearchFaces,2024.2.4,Win32,59.95203837,,,,,,,,556.765,556.873,556.873,558.874,block1,f,1,0.622,,1,3,43,29,1,0,bottom_right,neutral,no_target,,,,,,,,,,,,,,,,
,,,,,552569,m,y,r,n,11,0,2025-04-03_11h34.04.162,VisualSearchFaces,2024.2.4,Win32,59.95203837,,,,,,,,559.875,559.974,559.974,561.976,block1,f,1,0.622,,1,4,44,25,1,0,centre,neutral,no_target,,,,,,,,,,,,,,,,
,,,,,552569,m,y,r,n,11,0,2025-04-03_11h34.04.162,VisualSearchFaces,2024.2.4,Win32,59.95203837,,,,,,,,562.975,563.09,563.09,565.078,block1,f,1,0.567,,1,5,45,20,1,0,centre,neutral,no_target,,,,,,,,,,,,,,,,
,,,,,552569,m,y,r,n,11,0,2025-04-03_11h34.04.162,VisualSearchFaces,2024.2.4,Win32,59.95203837,,,,,,,,566.091,566.206,566.206,568.206,block1,j,0,1.26,,1,6,46,31,1,0,top_left,friendly,no_target,,,,,,,,,,,,,,,,
,,,,,552569,m,y,r,n,11,0,2025-04-03_11h34.04.162,VisualSearchFaces,2024.2.4,Win32,59.95203837,,,,,,,,569.207,569.31,569.31,571.31,block1,j,1,0.727,,1,7,47,14,1,1,bottom_right,friendly,neutral,,,,,,,,,,,,,,,,
,,,,,552569,m,y,r,n,11,0,2025-04-03_11h34.04.162,VisualSearchFaces,2024.2.4,Win32,59.95203837,,,,,,,,572.306,572.414,572.414,574.406,block1,f,1,0.595,,1,8,48,21,1,0,top_left,neutral,no_target,,,,,,,,,,,,,,,,
,,,,,552569,m,y,r,n,11,0,2025-04-03_11h34.04.162,VisualSearchFaces,2024.2.4,Win32,59.95203837,,,,,,,,575.407,575.506,575.506,577.505,block1,f,1,0.587,,1,9,49,27,1,0,top_right,neutral,no_target,,,,,,,,,,,,,,,,
,,,,,552569,m,y,r,n,11,0,2025-04-03_11h34.04.162,VisualSearchFaces,2024.2.4,Win32,59.95203837,,,,,,,,578.506,578.621,578.621,580.621,block1,j,1,0.589,,1,10,50,2,1,1,top_right,neutral,friendly,,,,,,,,,,,,,,,,
,,,,,552569,m,y,r,n,11,0,2025-04-03_11h34.04.162,VisualSearchFaces,2024.2.4,Win32,59.95203837,,,,,,,,581.622,581.726,581.726,583.721,block1,f,1,0.871,,1,11,51,35,1,0,centre,threatening,no_target,,,,,,,,,,,,,,,,
,,,,,552569,m,y,r,n,11,0,2025-04-03_11h34.04.162,VisualSearchFaces,2024.2.4,Win32,59.95203837,,,,,,,,584.721,584.821,584.821,586.82,block1,f,1,1.135,,1,12,52,36,1,0,top_left,threatening,no_target,,,,,,,,,,,,,,,,
,,,,,552569,m,y,r,n,11,0,2025-04-03_11h34.04.162,VisualSearchFaces,2024.2.4,Win32,59.95203837,,,,,,,,587.822,587.937,587.937,589.937,block1,j,0,1.112,,1,13,53,30,1,0,centre,friendly,no_target,,,,,,,,,,,,,,,,
,,,,,552569,m,y,r,n,11,0,2025-04-03_11h34.04.162,VisualSearchFaces,2024.2.4,Win32,59.95203837,,,,,,,,590.938,591.041,591.041,593.036,block1,f,1,0.666,,1,14,54,28,1,0,bottom_left,neutral,no_target,,,,,,,,,,,,,,,,
,,,,,552569,m,y,r,n,11,0,2025-04-03_11h34.04.162,VisualSearchFaces,2024.2.4,Win32,59.95203837,,,,,,,,594.038,594.153,594.153,596.153,block1,f,1,0.881,,1,15,55,34,1,0,bottom_right,friendly,no_target,,,,,,,,,,,,,,,,
,,,,,552569,m,y,r,n,11,0,2025-04-03_11h34.04.162,VisualSearchFaces,2024.2.4,Win32,59.95203837,,,,,,,,597.153,597.257,597.257,599.252,block1,j,1,0.559,,1,16,56,9,1,1,bottom_right,neutral,threatening,,,,,,,,,,,,,,,,
,,,,,552569,m,y,r,n,11,0,2025-04-03_11h34.04.162,VisualSearchFaces,2024.2.4,Win32,59.95203837,,,,,,,,600.254,600.369,600.369,602.369,block1,j,1,0.82,,1,17,57,10,1,1,centre,friendly,neutral,,,,,,,,,,,,,,,,
,,,,,552569,m,y,r,n,11,0,2025-04-03_11h34.04.162,VisualSearchFaces,2024.2.4,Win32,59.95203837,,,,,,,,603.378,603.485,603.485,605.485,block1,j,1,0.757,,1,18,58,0,1,1,centre,neutral,friendly,,,,,,,,,,,,,,,,
,,,,,552569,m,y,r,n,11,0,2025-04-03_11h34.04.162,VisualSearchFaces,2024.2.4,Win32,59.95203837,,,,,,,,606.487,606.585,606.585,608.587,block1,f,1,0.716,,1,19,59,38,1,0,bottom_left,threatening,no_target,,,,,,,,,,,,,,,,
,,,,,552569,m,y,r,n,11,0,2025-04-03_11h34.04.162,VisualSearchFaces,2024.2.4,Win32,59.95203837,,,,,,,,609.585,609.687,609.687,611.684,block1,f,0,0.624,,1,20,60,3,1,1,bottom_left,neutral,friendly,,,,,,,,,,,,,,,,
,,,,,552569,m,y,r,n,11,0,2025-04-03_11h34.04.162,VisualSearchFaces,2024.2.4,Win32,59.95203837,,,,,,,,612.686,612.791,612.791,614.783,block1,j,1,1.094,,1,21,61,19,1,1,bottom_right,threatening,neutral,,,,,,,,,,,,,,,,
,,,,,552569,m,y,r,n,11,0,2025-04-03_11h34.04.162,VisualSearchFaces,2024.2.4,Win32,59.95203837,,,,,,,,615.785,615.9,615.9,617.9,block1,j,1,0.605,,1,22,62,5,1,1,centre,neutral,threatening,,,,,,,,,,,,,,,,
,,,,,552569,m,y,r,n,11,0,2025-04-03_11h34.04.162,VisualSearchFaces,2024.2.4,Win32,59.95203837,,,,,,,,618.901,619,619,621.001,block1,j,1,0.701,,1,23,63,15,1,1,centre,threatening,neutral,,,,,,,,,,,,,,,,
,,,,,552569,m,y,r,n,11,0,2025-04-03_11h34.04.162,VisualSearchFaces,2024.2.4,Win32,59.95203837,,,,,,,,622.001,622.099,622.099,624.099,block1,f,0,0.735,,1,24,64,16,1,1,top_left,threatening,neutral,,,,,,,,,,,,,,,,
,,,,,552569,m,y,r,n,11,0,2025-04-03_11h34.04.162,VisualSearchFaces,2024.2.4,Win32,59.95203837,,,,,,,,625.1,625.216,625.216,627.215,block1,f,1,0.667,,1,25,65,26,1,0,top_left,neutral,no_target,,,,,,,,,,,,,,,,
,,,,,552569,m,y,r,n,11,0,2025-04-03_11h34.04.162,VisualSearchFaces,2024.2.4,Win32,59.95203837,,,,,,,,628.216,628.315,628.315,630.315,block1,f,1,0.841,,1,26,66,32,1,0,top_right,friendly,no_target,,,,,,,,,,,,,,,,
,,,,,552569,m,y,r,n,11,0,2025-04-03_11h34.04.162,VisualSearchFaces,2024.2.4,Win32,59.95203837,,,,,,,,631.317,631.432,631.432,633.432,block1,f,1,0.556,,1,27,67,39,1,0,bottom_right,threatening,no_target,,,,,,,,,,,,,,,,
,,,,,552569,m,y,r,n,11,0,2025-04-03_11h34.04.162,VisualSearchFaces,2024.2.4,Win32,59.95203837,,,,,,,,634.435,634.548,634.548,636.548,block1,f,1,0.538,,1,28,68,23,1,0,bottom_left,neutral,no_target,,,,,,,,,,,,,,,,
,,,,,552569,m,y,r,n,11,0,2025-04-03_11h34.04.162,VisualSearchFaces,2024.2.4,Win32,59.95203837,,,,,,,,637.549,637.655,637.655,639.647,block1,j,1,0.622,,1,29,69,1,1,1,top_left,neutral,friendly,,,,,,,,,,,,,,,,
,,,,,552569,m,y,r,n,11,0,2025-04-03_11h34.04.162,VisualSearchFaces,2024.2.4,Win32,59.95203837,,,,,,,,640.649,640.771,640.771,642.763,block1,f,1,0.605,,1,30,70,24,1,0,bottom_right,neutral,no_target,,,,,,,,,,,,,,,,
,,,,,552569,m,y,r,n,11,0,2025-04-03_11h34.04.162,VisualSearchFaces,2024.2.4,Win32,59.95203837,,,,,,,,643.765,643.88,643.88,645.882,block1,j,1,0.573,,1,31,71,7,1,1,top_right,neutral,threatening,,,,,,,,,,,,,,,,
,,,,,552569,m,y,r,n,11,0,2025-04-03_11h34.04.162,VisualSearchFaces,2024.2.4,Win32,59.95203837,,,,,,,,646.87,646.98,646.98,648.979,block1,j,1,0.653,,1,32,72,17,1,1,top_right,threatening,neutral,,,,,,,,,,,,,,,,
,,,,,552569,m,y,r,n,11,0,2025-04-03_11h34.04.162,VisualSearchFaces,2024.2.4,Win32,59.95203837,,,,,,,,649.98,650.079,650.079,652.079,block1,j,1,0.84,,1,33,73,8,1,1,bottom_left,neutral,threatening,,,,,,,,,,,,,,,,
,,,,,552569,m,y,r,n,11,0,2025-04-03_11h34.04.162,VisualSearchFaces,2024.2.4,Win32,59.95203837,,,,,,,,653.08,653.196,653.196,655.196,block1,f,1,0.708,,1,34,74,33,1,0,bottom_left,friendly,no_target,,,,,,,,,,,,,,,,
,,,,,552569,m,y,r,n,11,0,2025-04-03_11h34.04.162,VisualSearchFaces,2024.2.4,Win32,59.95203837,,,,,,,,656.197,656.312,656.312,658.311,block1,j,1,1.274,,1,35,75,13,1,1,bottom_left,friendly,neutral,,,,,,,,,,,,,,,,
,,,,,552569,m,y,r,n,11,0,2025-04-03_11h34.04.162,VisualSearchFaces,2024.2.4,Win32,59.95203837,,,,,,,,659.313,659.412,659.412,661.412,block1,f,0,0.693,,1,36,76,11,1,1,top_left,friendly,neutral,,,,,,,,,,,,,,,,
,,,,,552569,m,y,r,n,11,0,2025-04-03_11h34.04.162,VisualSearchFaces,2024.2.4,Win32,59.95203837,,,,,,,,662.412,662.511,662.511,664.511,block1,j,1,0.893,,1,37,77,6,1,1,top_left,neutral,threatening,,,,,,,,,,,,,,,,
,,,,,552569,m,y,r,n,11,0,2025-04-03_11h34.04.162,VisualSearchFaces,2024.2.4,Win32,59.95203837,,,,,,,,665.512,665.611,665.611,667.611,block1,f,1,0.735,,1,38,78,37,1,0,top_right,threatening,no_target,,,,,,,,,,,,,,,,
,,,,,552569,m,y,r,n,11,0,2025-04-03_11h34.04.162,VisualSearchFaces,2024.2.4,Win32,59.95203837,,,,,,,,668.614,668.727,668.728,670.727,block1,f,1,0.637,,1,39,79,22,1,0,top_right,neutral,no_target,,,,,,,,,,,,,,,,
,,,,,552569,m,y,r,n,11,0,2025-04-03_11h34.04.162,VisualSearchFaces,2024.2.4,Win32,59.95203837,,,727.424,734.186,space,6.739,0,735.187,735.286,735.286,737.288,block2,f,0,1.102,,0,0,0,15,1,1,centre,threatening,neutral,670.73,727.42,space,56.662,0,,,,,,,,,,,
,,,,,552569,m,y,r,n,11,0,2025-04-03_11h34.04.162,VisualSearchFaces,2024.2.4,Win32,59.95203837,,,,,,,,738.288,738.386,738.386,740.386,block2,j,0,0.701,,0,1,1,32,1,0,top_right,friendly,no_target,,,,,,,,,,,,,,,,
,,,,,552569,m,y,r,n,11,0,2025-04-03_11h34.04.162,VisualSearchFaces,2024.2.4,Win32,59.95203837,,,,,,,,741.387,741.501,741.502,743.502,block2,j,1,0.606,,0,2,2,7,1,1,top_right,neutral,threatening,,,,,,,,,,,,,,,,
,,,,,552569,m,y,r,n,11,0,2025-04-03_11h34.04.162,VisualSearchFaces,2024.2.4,Win32,59.95203837,,,,,,,,744.503,744.603,744.603,746.601,block2,j,1,0.866,,0,3,3,16,1,1,top_left,threatening,neutral,,,,,,,,,,,,,,,,
,,,,,552569,m,y,r,n,11,0,2025-04-03_11h34.04.162,VisualSearchFaces,2024.2.4,Win32,59.95203837,,,,,,,,747.603,747.718,747.718,749.718,block2,j,1,0.682,,0,4,4,9,1,1,bottom_right,neutral,threatening,,,,,,,,,,,,,,,,
,,,,,552569,m,y,r,n,11,0,2025-04-03_11h34.04.162,VisualSearchFaces,2024.2.4,Win32,59.95203837,,,,,,,,750.72,750.825,750.825,752.817,block2,f,1,0.824,,0,5,5,37,1,0,top_right,threatening,no_target,,,,,,,,,,,,,,,,
,,,,,552569,m,y,r,n,11,0,2025-04-03_11h34.04.162,VisualSearchFaces,2024.2.4,Win32,59.95203837,,,,,,,,753.82,753.934,753.934,755.933,block2,f,0,0.939,,0,6,6,10,1,1,centre,friendly,neutral,,,,,,,,,,,,,,,,
,,,,,552569,m,y,r,n,11,0,2025-04-03_11h34.04.162,VisualSearchFaces,2024.2.4,Win32,59.95203837,,,,,,,,756.934,757.033,757.033,759.034,block2,j,1,1.051,,0,7,7,1,1,1,top_left,neutral,friendly,,,,,,,,,,,,,,,,
,,,,,552569,m,y,r,n,11,0,2025-04-03_11h34.04.162,VisualSearchFaces,2024.2.4,Win32,59.95203837,,,,,,,,760.036,760.14,760.14,762.134,block2,j,1,0.621,,0,8,8,17,1,1,top_right,threatening,neutral,,,,,,,,,,,,,,,,
,,,,,552569,m,y,r,n,11,0,2025-04-03_11h34.04.162,VisualSearchFaces,2024.2.4,Win32,59.95203837,,,,,,,,763.133,763.232,763.232,765.233,block2,j,1,1.266,,0,9,9,8,1,1,bottom_left,neutral,threatening,,,,,,,,,,,,,,,,
,,,,,552569,m,y,r,n,11,0,2025-04-03_11h34.04.162,VisualSearchFaces,2024.2.4,Win32,59.95203837,,,,,,,,766.234,766.349,766.349,768.349,block2,f,1,0.662,,0,10,10,30,1,0,centre,friendly,no_target,,,,,,,,,,,,,,,,
,,,,,552569,m,y,r,n,11,0,2025-04-03_11h34.04.162,VisualSearchFaces,2024.2.4,Win32,59.95203837,,,,,,,,769.35,769.465,769.465,771.466,block2,j,1,0.664,,0,11,11,19,1,1,bottom_right,threatening,neutral,,,,,,,,,,,,,,,,
,,,,,552569,m,y,r,n,11,0,2025-04-03_11h34.04.162,VisualSearchFaces,2024.2.4,Win32,59.95203837,,,,,,,,772.467,772.572,772.572,774.564,block2,f,1,0.611,,0,12,12,22,1,0,top_right,neutral,no_target,,,,,,,,,,,,,,,,
,,,,,552569,m,y,r,n,11,0,2025-04-03_11h34.04.162,VisualSearchFaces,2024.2.4,Win32,59.95203837,,,,,,,,775.566,775.681,775.681,777.681,block2,j,1,1.044,,0,13,13,12,1,1,top_right,friendly,neutral,,,,,,,,,,,,,,,,
,,,,,552569,m,y,r,n,11,0,2025-04-03_11h34.04.162,VisualSearchFaces,2024.2.4,Win32,59.95203837,,,,,,,,778.682,778.781,778.781,780.78,block2,j,1,0.976,,0,14,14,14,1,1,bottom_right,friendly,neutral,,,,,,,,,,,,,,,,
,,,,,552569,m,y,r,n,11,0,2025-04-03_11h34.04.162,VisualSearchFaces,2024.2.4,Win32,59.95203837,,,,,,,,781.783,781.898,781.898,783.897,block2,j,1,0.605,,0,15,15,3,1,1,bottom_left,neutral,friendly,,,,,,,,,,,,,,,,
,,,,,552569,m,y,r,n,11,0,2025-04-03_11h34.04.162,VisualSearchFaces,2024.2.4,Win32,59.95203837,,,,,,,,784.898,785.014,785.014,787.016,block2,f,1,0.753,,0,16,16,38,1,0,bottom_left,threatening,no_target,,,,,,,,,,,,,,,,
,,,,,552569,m,y,r,n,11,0,2025-04-03_11h34.04.162,VisualSearchFaces,2024.2.4,Win32,59.95203837,,,,,,,,788.02,788.13,788.13,790.13,block2,f,1,1.369,,0,17,17,23,1,0,bottom_left,neutral,no_target,,,,,,,,,,,,,,,,
,,,,,552569,m,y,r,n,11,0,2025-04-03_11h34.04.162,VisualSearchFaces,2024.2.4,Win32,59.95203837,,,,,,,,791.132,791.239,791.239,793.229,block2,f,1,0.854,,0,18,18,31,1,0,top_left,friendly,no_target,,,,,,,,,,,,,,,,
,,,,,552569,m,y,r,n,11,0,2025-04-03_11h34.04.162,VisualSearchFaces,2024.2.4,Win32,59.95203837,,,,,,,,794.23,794.346,794.346,796.345,block2,f,1,0.819,,0,19,19,35,1,0,centre,threatening,no_target,,,,,,,,,,,,,,,,
,,,,,552569,m,y,r,n,11,0,2025-04-03_11h34.04.162,VisualSearchFaces,2024.2.4,Win32,59.95203837,,,,,,,,797.348,797.462,797.462,799.462,block2,f,1,0.786,,0,20,20,27,1,0,top_right,neutral,no_target,,,,,,,,,,,,,,,,
,,,,,552569,m,y,r,n,11,0,2025-04-03_11h34.04.162,VisualSearchFaces,2024.2.4,Win32,59.95203837,,,,,,,,800.462,800.578,800.578,802.579,block2,j,1,0.621,,0,21,21,5,1,1,centre,neutral,threatening,,,,,,,,,,,,,,,,
,,,,,552569,m,y,r,n,11,0,2025-04-03_11h34.04.162,VisualSearchFaces,2024.2.4,Win32,59.95203837,,,,,,,,803.579,803.678,803.678,805.678,block2,f,1,0.525,,0,22,22,29,1,0,bottom_right,neutral,no_target,,,,,,,,,,,,,,,,
,,,,,552569,m,y,r,n,11,0,2025-04-03_11h34.04.162,VisualSearchFaces,2024.2.4,Win32,59.95203837,,,,,,,,806.679,806.788,806.788,808.777,block2,j,1,0.648,,0,23,23,13,1,1,bottom_left,friendly,neutral,,,,,,,,,,,,,,,,
,,,,,552569,m,y,r,n,11,0,2025-04-03_11h34.04.162,VisualSearchFaces,2024.2.4,Win32,59.95203837,,,,,,,,809.778,809.877,809.877,811.877,block2,f,1,0.773,,0,24,24,20,1,0,centre,neutral,no_target,,,,,,,,,,,,,,,,
,,,,,552569,m,y,r,n,11,0,2025-04-03_11h34.04.162,VisualSearchFaces,2024.2.4,Win32,59.95203837,,,,,,,,812.881,812.993,812.993,814.982,block2,f,1,0.818,,0,25,25,33,1,0,bottom_left,friendly,no_target,,,,,,,,,,,,,,,,
,,,,,552569,m,y,r,n,11,0,2025-04-03_11h34.04.162,VisualSearchFaces,2024.2.4,Win32,59.95203837,,,,,,,,815.994,816.097,816.097,818.093,block2,j,1,0.601,,0,26,26,6,1,1,top_left,neutral,threatening,,,,,,,,,,,,,,,,
,,,,,552569,m,y,r,n,11,0,2025-04-03_11h34.04.162,VisualSearchFaces,2024.2.4,Win32,59.95203837,,,,,,,,819.095,819.209,819.209,821.209,block2,j,1,0.592,,0,27,27,4,1,1,bottom_right,neutral,friendly,,,,,,,,,,,,,,,,
,,,,,552569,m,y,r,n,11,0,2025-04-03_11h34.04.162,VisualSearchFaces,2024.2.4,Win32,59.95203837,,,,,,,,822.209,822.316,822.316,824.308,block2,f,1,0.466,,0,28,28,21,1,0,top_left,neutral,no_target,,,,,,,,,,,,,,,,
,,,,,552569,m,y,r,n,11,0,2025-04-03_11h34.04.162,VisualSearchFaces,2024.2.4,Win32,59.95203837,,,,,,,,825.309,825.409,825.409,827.412,block2,j,1,0.691,,0,29,29,18,1,1,bottom_left,threatening,neutral,,,,,,,,,,,,,,,,
,,,,,552569,m,y,r,n,11,0,2025-04-03_11h34.04.162,VisualSearchFaces,2024.2.4,Win32,59.95203837,,,,,,,,828.411,828.518,828.518,830.508,block2,j,1,0.702,,0,30,30,2,1,1,top_right,neutral,friendly,,,,,,,,,,,,,,,,
,,,,,552569,m,y,r,n,11,0,2025-04-03_11h34.04.162,VisualSearchFaces,2024.2.4,Win32,59.95203837,,,,,,,,831.509,831.625,831.625,833.624,block2,j,1,0.546,,0,31,31,0,1,1,centre,neutral,friendly,,,,,,,,,,,,,,,,
,,,,,552569,m,y,r,n,11,0,2025-04-03_11h34.04.162,VisualSearchFaces,2024.2.4,Win32,59.95203837,,,,,,,,834.626,834.726,834.726,836.724,block2,f,1,0.531,,0,32,32,28,1,0,bottom_left,neutral,no_target,,,,,,,,,,,,,,,,
,,,,,552569,m,y,r,n,11,0,2025-04-03_11h34.04.162,VisualSearchFaces,2024.2.4,Win32,59.95203837,,,,,,,,837.725,837.824,837.824,839.825,block2,f,1,1.628,,0,33,33,34,1,0,bottom_right,friendly,no_target,,,,,,,,,,,,,,,,
,,,,,552569,m,y,r,n,11,0,2025-04-03_11h34.04.162,VisualSearchFaces,2024.2.4,Win32,59.95203837,,,,,,,,840.826,840.943,840.943,842.944,block2,f,1,0.544,,0,34,34,26,1,0,top_left,neutral,no_target,,,,,,,,,,,,,,,,
,,,,,552569,m,y,r,n,11,0,2025-04-03_11h34.04.162,VisualSearchFaces,2024.2.4,Win32,59.95203837,,,,,,,,843.941,844.041,844.041,846.04,block2,f,1,0.52,,0,35,35,25,1,0,centre,neutral,no_target,,,,,,,,,,,,,,,,
,,,,,552569,m,y,r,n,11,0,2025-04-03_11h34.04.162,VisualSearchFaces,2024.2.4,Win32,59.95203837,,,,,,,,847.04,847.139,847.139,849.14,block2,j,0,0.941,,0,36,36,39,1,0,bottom_right,threatening,no_target,,,,,,,,,,,,,,,,
,,,,,552569,m,y,r,n,11,0,2025-04-03_11h34.04.162,VisualSearchFaces,2024.2.4,Win32,59.95203837,,,,,,,,850.14,850.257,850.257,852.257,block2,f,1,0.542,,0,37,37,36,1,0,top_left,threatening,no_target,,,,,,,,,,,,,,,,
,,,,,552569,m,y,r,n,11,0,2025-04-03_11h34.04.162,VisualSearchFaces,2024.2.4,Win32,59.95203837,,,,,,,,853.256,853.355,853.355,855.355,block2,j,0,0.521,,0,38,38,24,1,0,bottom_right,neutral,no_target,,,,,,,,,,,,,,,,
,,,,,552569,m,y,r,n,11,0,2025-04-03_11h34.04.162,VisualSearchFaces,2024.2.4,Win32,59.95203837,,,,,,,,856.356,856.457,856.457,858.456,block2,f,0,0.621,,0,39,39,11,1,1,top_left,friendly,neutral,,,,,,,,,,,,,,,,
,,,,,552569,m,y,r,n,11,0,2025-04-03_11h34.04.162,VisualSearchFaces,2024.2.4,Win32,59.95203837,,,,,,,,859.456,859.557,859.557,861.556,block2,j,1,0.757,,1,0,40,8,1,1,bottom_left,neutral,threatening,,,,,,,,,,,,,,,,
,,,,,552569,m,y,r,n,11,0,2025-04-03_11h34.04.162,VisualSearchFaces,2024.2.4,Win32,59.95203837,,,,,,,,862.555,862.654,862.654,864.654,block2,f,1,0.467,,1,1,41,22,1,0,top_right,neutral,no_target,,,,,,,,,,,,,,,,
,,,,,552569,m,y,r,n,11,0,2025-04-03_11h34.04.162,VisualSearchFaces,2024.2.4,Win32,59.95203837,,,,,,,,865.655,865.771,865.771,867.77,block2,j,1,0.989,,1,2,42,19,1,1,bottom_right,threatening,neutral,,,,,,,,,,,,,,,,
,,,,,552569,m,y,r,n,11,0,2025-04-03_11h34.04.162,VisualSearchFaces,2024.2.4,Win32,59.95203837,,,,,,,,868.771,868.876,868.876,870.87,block2,j,1,0.716,,1,3,43,10,1,1,centre,friendly,neutral,,,,,,,,,,,,,,,,
,,,,,552569,m,y,r,n,11,0,2025-04-03_11h34.04.162,VisualSearchFaces,2024.2.4,Win32,59.95203837,,,,,,,,871.871,871.986,871.986,873.986,block2,f,1,0.763,,1,4,44,36,1,0,top_left,threatening,no_target,,,,,,,,,,,,,,,,
,,,,,552569,m,y,r,n,11,0,2025-04-03_11h34.04.162,VisualSearchFaces,2024.2.4,Win32,59.95203837,,,,,,,,874.988,875.095,875.095,877.086,block2,f,1,0.569,,1,5,45,25,1,0,centre,neutral,no_target,,,,,,,,,,,,,,,,
,,,,,552569,m,y,r,n,11,0,2025-04-03_11h34.04.162,VisualSearchFaces,2024.2.4,Win32,59.95203837,,,,,,,,878.086,878.203,878.203,880.205,block2,j,1,0.9,,1,6,46,6,1,1,top_left,neutral,threatening,,,,,,,,,,,,,,,,
,,,,,552569,m,y,r,n,11,0,2025-04-03_11h34.04.162,VisualSearchFaces,2024.2.4,Win32,59.95203837,,,,,,,,881.204,881.306,881.306,883.307,block2,j,1,0.876,,1,7,47,1,1,1,top_left,neutral,friendly,,,,,,,,,,,,,,,,
,,,,,552569,m,y,r,n,11,0,2025-04-03_11h34.04.162,VisualSearchFaces,2024.2.4,Win32,59.95203837,,,,,,,,884.303,884.401,884.401,886.401,block2,j,1,0.598,,1,8,48,0,1,1,centre,neutral,friendly,,,,,,,,,,,,,,,,
,,,,,552569,m,y,r,n,11,0,2025-04-03_11h34.04.162,VisualSearchFaces,2024.2.4,Win32,59.95203837,,,,,,,,887.403,887.518,887.518,889.518,block2,f,1,0.697,,1,9,49,32,1,0,top_right,friendly,no_target,,,,,,,,,,,,,,,,
,,,,,552569,m,y,r,n,11,0,2025-04-03_11h34.04.162,VisualSearchFaces,2024.2.4,Win32,59.95203837,,,,,,,,890.52,890.634,890.634,892.634,block2,j,1,0.951,,1,10,50,3,1,1,bottom_left,neutral,friendly,,,,,,,,,,,,,,,,
,,,,,552569,m,y,r,n,11,0,2025-04-03_11h34.04.162,VisualSearchFaces,2024.2.4,Win32,59.95203837,,,,,,,,893.635,893.75,893.75,895.75,block2,f,0,0.827,,1,11,51,16,1,1,top_left,threatening,neutral,,,,,,,,,,,,,,,,
,,,,,552569,m,y,r,n,11,0,2025-04-03_11h34.04.162,VisualSearchFaces,2024.2.4,Win32,59.95203837,,,,,,,,896.751,896.852,896.852,898.85,block2,j,1,1.177,,1,12,52,4,1,1,bottom_right,neutral,friendly,,,,,,,,,,,,,,,,
,,,,,552569,m,y,r,n,11,0,2025-04-03_11h34.04.162,VisualSearchFaces,2024.2.4,Win32,59.95203837,,,,,,,,899.851,899.95,899.95,901.949,block2,f,1,0.63,,1,13,53,35,1,0,centre,threatening,no_target,,,,,,,,,,,,,,,,
,,,,,552569,m,y,r,n,11,0,2025-04-03_11h34.04.162,VisualSearchFaces,2024.2.4,Win32,59.95203837,,,,,,,,902.951,903.05,903.05,905.049,block2,j,1,1.344,,1,14,54,18,1,1,bottom_left,threatening,neutral,,,,,,,,,,,,,,,,
,,,,,552569,m,y,r,n,11,0,2025-04-03_11h34.04.162,VisualSearchFaces,2024.2.4,Win32,59.95203837,,,,,,,,906.05,906.165,906.165,908.166,block2,j,1,0.974,,1,15,55,2,1,1,top_right,neutral,friendly,,,,,,,,,,,,,,,,
,,,,,552569,m,y,r,n,11,0,2025-04-03_11h34.04.162,VisualSearchFaces,2024.2.4,Win32,59.95203837,,,,,,,,909.167,909.266,909.266,911.266,block2,j,1,0.567,,1,16,56,5,1,1,centre,neutral,threatening,,,,,,,,,,,,,,,,
,,,,,552569,m,y,r,n,11,0,2025-04-03_11h34.04.162,VisualSearchFaces,2024.2.4,Win32,59.95203837,,,,,,,,912.267,912.382,912.382,914.381,block2,f,1,0.599,,1,17,57,28,1,0,bottom_left,neutral,no_target,,,,,,,,,,,,,,,,
,,,,,552569,m,y,r,n,11,0,2025-04-03_11h34.04.162,VisualSearchFaces,2024.2.4,Win32,59.95203837,,,,,,,,915.382,915.5,915.5,917.498,block2,j,1,1.149,,1,18,58,12,1,1,top_right,friendly,neutral,,,,,,,,,,,,,,,,
,,,,,552569,m,y,r,n,11,0,2025-04-03_11h34.04.162,VisualSearchFaces,2024.2.4,Win32,59.95203837,,,,,,,,918.499,918.618,918.618,920.614,block2,j,1,0.597,,1,19,59,9,1,1,bottom_right,neutral,threatening,,,,,,,,,,,,,,,,
,,,,,552569,m,y,r,n,11,0,2025-04-03_11h34.04.162,VisualSearchFaces,2024.2.4,Win32,59.95203837,,,,,,,,921.614,921.731,921.731,923.73,block2,f,0,0.704,,1,20,60,13,1,1,bottom_left,friendly,neutral,,,,,,,,,,,,,,,,
,,,,,552569,m,y,r,n,11,0,2025-04-03_11h34.04.162,VisualSearchFaces,2024.2.4,Win32,59.95203837,,,,,,,,924.731,924.83,924.83,926.83,block2,j,1,1.29,,1,21,61,17,1,1,top_right,threatening,neutral,,,,,,,,,,,,,,,,
,,,,,552569,m,y,r,n,11,0,2025-04-03_11h34.04.162,VisualSearchFaces,2024.2.4,Win32,59.95203837,,,,,,,,927.831,927.93,927.93,929.93,block2,f,1,1.212,,1,22,62,37,1,0,top_right,threatening,no_target,,,,,,,,,,,,,,,,
,,,,,552569,m,y,r,n,11,0,2025-04-03_11h34.04.162,VisualSearchFaces,2024.2.4,Win32,59.95203837,,,,,,,,930.93,931.032,931.032,933.029,block2,j,1,0.582,,1,23,63,7,1,1,top_right,neutral,threatening,,,,,,,,,,,,,,,,
,,,,,552569,m,y,r,n,11,0,2025-04-03_11h34.04.162,VisualSearchFaces,2024.2.4,Win32,59.95203837,,,,,,,,934.03,934.131,934.131,936.135,block2,f,1,0.624,,1,24,64,29,1,0,bottom_right,neutral,no_target,,,,,,,,,,,,,,,,
,,,,,552569,m,y,r,n,11,0,2025-04-03_11h34.04.162,VisualSearchFaces,2024.2.4,Win32,59.95203837,,,,,,,,937.129,937.23,937.23,939.229,block2,f,1,1.245,,1,25,65,30,1,0,centre,friendly,no_target,,,,,,,,,,,,,,,,
,,,,,552569,m,y,r,n,11,0,2025-04-03_11h34.04.162,VisualSearchFaces,2024.2.4,Win32,59.95203837,,,,,,,,940.229,940.345,940.345,942.345,block2,f,1,0.509,,1,26,66,23,1,0,bottom_left,neutral,no_target,,,,,,,,,,,,,,,,
,,,,,552569,m,y,r,n,11,0,2025-04-03_11h34.04.162,VisualSearchFaces,2024.2.4,Win32,59.95203837,,,,,,,,943.346,943.449,943.449,945.446,block2,f,1,0.457,,1,27,67,26,1,0,top_left,neutral,no_target,,,,,,,,,,,,,,,,
,,,,,552569,m,y,r,n,11,0,2025-04-03_11h34.04.162,VisualSearchFaces,2024.2.4,Win32,59.95203837,,,,,,,,946.445,946.564,946.564,948.56,block2,f,1,1.237,,1,28,68,39,1,0,bottom_right,threatening,no_target,,,,,,,,,,,,,,,,
,,,,,552569,m,y,r,n,11,0,2025-04-03_11h34.04.162,VisualSearchFaces,2024.2.4,Win32,59.95203837,,,,,,,,949.561,949.677,949.677,951.68,block2,f,1,0.449,,1,29,69,20,1,0,centre,neutral,no_target,,,,,,,,,,,,,,,,
,,,,,552569,m,y,r,n,11,0,2025-04-03_11h34.04.162,VisualSearchFaces,2024.2.4,Win32,59.95203837,,,,,,,,952.678,952.781,952.781,954.777,block2,f,1,1.129,,1,30,70,34,1,0,bottom_right,friendly,no_target,,,,,,,,,,,,,,,,
,,,,,552569,m,y,r,n,11,0,2025-04-03_11h34.04.162,VisualSearchFaces,2024.2.4,Win32,59.95203837,,,,,,,,955.779,955.893,955.893,957.893,block2,f,1,0.457,,1,31,71,33,1,0,bottom_left,friendly,no_target,,,,,,,,,,,,,,,,
,,,,,552569,m,y,r,n,11,0,2025-04-03_11h34.04.162,VisualSearchFaces,2024.2.4,Win32,59.95203837,,,,,,,,958.894,959.014,959.014,961.009,block2,f,0,0.425,,1,32,72,11,1,1,top_left,friendly,neutral,,,,,,,,,,,,,,,,
,,,,,552569,m,y,r,n,11,0,2025-04-03_11h34.04.162,VisualSearchFaces,2024.2.4,Win32,59.95203837,,,,,,,,962.011,962.109,962.109,964.109,block2,f,1,0.674,,1,33,73,38,1,0,bottom_left,threatening,no_target,,,,,,,,,,,,,,,,
,,,,,552569,m,y,r,n,11,0,2025-04-03_11h34.04.162,VisualSearchFaces,2024.2.4,Win32,59.95203837,,,,,,,,965.11,965.225,965.225,967.225,block2,f,1,0.571,,1,34,74,31,1,0,top_left,friendly,no_target,,,,,,,,,,,,,,,,
,,,,,552569,m,y,r,n,11,0,2025-04-03_11h34.04.162,VisualSearchFaces,2024.2.4,Win32,59.95203837,,,,,,,,968.228,968.342,968.342,970.342,block2,f,1,0.542,,1,35,75,21,1,0,top_left,neutral,no_target,,,,,,,,,,,,,,,,
,,,,,552569,m,y,r,n,11,0,2025-04-03_11h34.04.162,VisualSearchFaces,2024.2.4,Win32,59.95203837,,,,,,,,971.342,971.458,971.458,973.457,block2,j,1,0.537,,1,36,76,14,1,1,bottom_right,friendly,neutral,,,,,,,,,,,,,,,,
,,,,,552569,m,y,r,n,11,0,2025-04-03_11h34.04.162,VisualSearchFaces,2024.2.4,Win32,59.95203837,,,,,,,,974.461,974.574,974.574,976.574,block2,f,1,0.491,,1,37,77,24,1,0,bottom_right,neutral,no_target,,,,,,,,,,,,,,,,
,,,,,552569,m,y,r,n,11,0,2025-04-03_11h34.04.162,VisualSearchFaces,2024.2.4,Win32,59.95203837,,,,,,,,977.575,977.674,977.674,979.674,block2,f,1,0.376,,1,38,78,27,1,0,top_right,neutral,no_target,,,,,,,,,,,,,,,,
,,,,,552569,m,y,r,n,11,0,2025-04-03_11h34.04.162,VisualSearchFaces,2024.2.4,Win32,59.95203837,,,,,,,,980.674,980.774,980.774,982.773,block2,f,0,0.612,,1,39,79,15,1,1,centre,threatening,neutral,,,,,,,,,,,,,,,,
,,,,,552569,m,y,r,n,11,0,2025-04-03_11h34.04.162,VisualSearchFaces,2024.2.4,Win32,59.95203837,,,1004.965,1008.943,space,3.946,,1009.938,1010.042,1010.042,1012.036,block3,f,1,0.576,,0,0,0,23,1,0,bottom_left,neutral,no_target,982.775,1004.962,space,22.175,,,,,,,,,,,,
,,,,,552569,m,y,r,n,11,0,2025-04-03_11h34.04.162,VisualSearchFaces,2024.2.4,Win32,59.95203837,,,,,,,,1013.037,1013.152,1013.153,1015.153,block3,j,1,1.101,,0,1,1,11,1,1,top_left,friendly,neutral,,,,,,,,,,,,,,,,
,,,,,552569,m,y,r,n,11,0,2025-04-03_11h34.04.162,VisualSearchFaces,2024.2.4,Win32,59.95203837,,,,,,,,1016.154,1016.253,1016.253,1018.252,block3,j,1,0.638,,0,2,2,0,1,1,centre,neutral,friendly,,,,,,,,,,,,,,,,
,,,,,552569,m,y,r,n,11,0,2025-04-03_11h34.04.162,VisualSearchFaces,2024.2.4,Win32,59.95203837,,,,,,,,1019.254,1019.354,1019.354,1021.352,block3,f,1,1.132,,0,3,3,39,1,0,bottom_right,threatening,no_target,,,,,,,,,,,,,,,,
,,,,,552569,m,y,r,n,11,0,2025-04-03_11h34.04.162,VisualSearchFaces,2024.2.4,Win32,59.95203837,,,,,,,,1022.353,1022.468,1022.468,1024.468,block3,f,1,0.895,,0,4,4,33,1,0,bottom_left,friendly,no_target,,,,,,,,,,,,,,,,
,,,,,552569,m,y,r,n,11,0,2025-04-03_11h34.04.162,VisualSearchFaces,2024.2.4,Win32,59.95203837,,,,,,,,1025.469,1025.569,1025.569,1027.568,block3,j,1,0.561,,0,5,5,4,1,1,bottom_right,neutral,friendly,,,,,,,,,,,,,,,,
,,,,,552569,m,y,r,n,11,0,2025-04-03_11h34.04.162,VisualSearchFaces,2024.2.4,Win32,59.95203837,,,,,,,,1028.57,1028.685,1028.685,1030.685,block3,f,0,0.785,,0,6,6,16,1,1,top_left,threatening,neutral,,,,,,,,,,,,,,,,
,,,,,552569,m,y,r,n,11,0,2025-04-03_11h34.04.162,VisualSearchFaces,2024.2.4,Win32,59.95203837,,,,,,,,1031.685,1031.801,1031.801,1033.8,block3,f,1,0.694,,0,7,7,37,1,0,top_right,threatening,no_target,,,,,,,,,,,,,,,,
,,,,,552569,m,y,r,n,11,0,2025-04-03_11h34.04.162,VisualSearchFaces,2024.2.4,Win32,59.95203837,,,,,,,,1034.801,1034.901,1034.901,1036.901,block3,j,1,0.899,,0,8,8,8,1,1,bottom_left,neutral,threatening,,,,,,,,,,,,,,,,
,,,,,552569,m,y,r,n,11,0,2025-04-03_11h34.04.162,VisualSearchFaces,2024.2.4,Win32,59.95203837,,,,,,,,1037.902,1038.017,1038.017,1040.017,block3,j,1,1.317,,0,9,9,15,1,1,centre,threatening,neutral,,,,,,,,,,,,,,,,
,,,,,552569,m,y,r,n,11,0,2025-04-03_11h34.04.162,VisualSearchFaces,2024.2.4,Win32,59.95203837,,,,,,,,1041.018,1041.133,1041.133,1043.121,block3,f,1,1.355,,0,10,10,30,1,0,centre,friendly,no_target,,,,,,,,,,,,,,,,
,,,,,552569,m,y,r,n,11,0,2025-04-03_11h34.04.162,VisualSearchFaces,2024.2.4,Win32,59.95203837,,,,,,,,1044.137,1044.249,1044.249,1046.25,block3,j,1,0.65,,0,11,11,12,1,1,top_right,friendly,neutral,,,,,,,,,,,,,,,,
,,,,,552569,m,y,r,n,11,0,2025-04-03_11h34.04.162,VisualSearchFaces,2024.2.4,Win32,59.95203837,,,,,,,,1047.249,1047.356,1047.356,1049.349,block3,j,1,0.542,,0,12,12,19,1,1,bottom_right,threatening,neutral,,,,,,,,,,,,,,,,
,,,,,552569,m,y,r,n,11,0,2025-04-03_11h34.04.162,VisualSearchFaces,2024.2.4,Win32,59.95203837,,,,,,,,1050.349,1050.451,1050.451,1052.448,block3,f,1,0.746,,0,13,13,27,1,0,top_right,neutral,no_target,,,,,,,,,,,,,,,,
,,,,,552569,m,y,r,n,11,0,2025-04-03_11h34.04.162,VisualSearchFaces,2024.2.4,Win32,59.95203837,,,,,,,,1053.449,1053.548,1053.548,1055.549,block3,f,1,1.174,,0,14,14,34,1,0,bottom_right,friendly,no_target,,,,,,,,,,,,,,,,
,,,,,552569,m,y,r,n,11,0,2025-04-03_11h34.04.162,VisualSearchFaces,2024.2.4,Win32,59.95203837,,,,,,,,1056.549,1056.648,1056.648,1058.648,block3,f,1,0.569,,0,15,15,21,1,0,top_left,neutral,no_target,,,,,,,,,,,,,,,,
,,,,,552569,m,y,r,n,11,0,2025-04-03_11h34.04.162,VisualSearchFaces,2024.2.4,Win32,59.95203837,,,,,,,,1059.637,1059.748,1059.748,1061.751,block3,j,1,0.634,,0,16,16,10,1,1,centre,friendly,neutral,,,,,,,,,,,,,,,,
,,,,,552569,m,y,r,n,11,0,2025-04-03_11h34.04.162,VisualSearchFaces,2024.2.4,Win32,59.95203837,,,,,,,,1062.748,1062.854,1062.854,1064.847,block3,j,1,0.575,,0,17,17,6,1,1,top_left,neutral,threatening,,,,,,,,,,,,,,,,
,,,,,552569,m,y,r,n,11,0,2025-04-03_11h34.04.162,VisualSearchFaces,2024.2.4,Win32,59.95203837,,,,,,,,1065.85,1065.947,1065.947,1067.947,block3,f,1,1.127,,0,18,18,36,1,0,top_left,threatening,no_target,,,,,,,,,,,,,,,,
,,,,,552569,m,y,r,n,11,0,2025-04-03_11h34.04.162,VisualSearchFaces,2024.2.4,Win32,59.95203837,,,,,,,,1068.947,1069.063,1069.063,1071.064,block3,j,1,0.7,,0,19,19,9,1,1,bottom_right,neutral,threatening,,,,,,,,,,,,,,,,
,,,,,552569,m,y,r,n,11,0,2025-04-03_11h34.04.162,VisualSearchFaces,2024.2.4,Win32,59.95203837,,,,,,,,1072.066,1072.18,1072.18,1074.179,block3,j,1,0.619,,0,20,20,1,1,1,top_left,neutral,friendly,,,,,,,,,,,,,,,,
,,,,,552569,m,y,r,n,11,0,2025-04-03_11h34.04.162,VisualSearchFaces,2024.2.4,Win32,59.95203837,,,,,,,,1075.18,1075.295,1075.295,1077.295,block3,f,1,1.119,,0,21,21,35,1,0,centre,threatening,no_target,,,,,,,,,,,,,,,,
,,,,,552569,m,y,r,n,11,0,2025-04-03_11h34.04.162,VisualSearchFaces,2024.2.4,Win32,59.95203837,,,,,,,,1078.297,1078.412,1078.412,1080.411,block3,j,1,0.623,,0,22,22,7,1,1,top_right,neutral,threatening,,,,,,,,,,,,,,,,
,,,,,552569,m,y,r,n,11,0,2025-04-03_11h34.04.162,VisualSearchFaces,2024.2.4,Win32,59.95203837,,,,,,,,1081.413,1081.528,1081.528,1083.528,block3,f,1,0.549,,0,23,23,29,1,0,bottom_right,neutral,no_target,,,,,,,,,,,,,,,,
,,,,,552569,m,y,r,n,11,0,2025-04-03_11h34.04.162,VisualSearchFaces,2024.2.4,Win32,59.95203837,,,,,,,,1084.529,1084.628,1084.628,1086.634,block3,f,1,0.54,,0,24,24,25,1,0,centre,neutral,no_target,,,,,,,,,,,,,,,,
,,,,,552569,m,y,r,n,11,0,2025-04-03_11h34.04.162,VisualSearchFaces,2024.2.4,Win32,59.95203837,,,,,,,,1087.629,1087.744,1087.744,1089.743,block3,j,1,0.566,,0,25,25,18,1,1,bottom_left,threatening,neutral,,,,,,,,,,,,,,,,
,,,,,552569,m,y,r,n,11,0,2025-04-03_11h34.04.162,VisualSearchFaces,2024.2.4,Win32,59.95203837,,,,,,,,1090.745,1090.86,1090.86,1092.86,block3,f,1,0.49,,0,26,26,22,1,0,top_right,neutral,no_target,,,,,,,,,,,,,,,,
,,,,,552569,m,y,r,n,11,0,2025-04-03_11h34.04.162,VisualSearchFaces,2024.2.4,Win32,59.95203837,,,,,,,,1093.861,1093.977,1093.977,1095.976,block3,f,1,0.971,,0,27,27,38,1,0,bottom_left,threatening,no_target,,,,,,,,,,,,,,,,
,,,,,552569,m,y,r,n,11,0,2025-04-03_11h34.04.162,VisualSearchFaces,2024.2.4,Win32,59.95203837,,,,,,,,1096.979,1097.093,1097.093,1099.093,block3,j,1,0.618,,0,28,28,13,1,1,bottom_left,friendly,neutral,,,,,,,,,,,,,,,,
,,,,,552569,m,y,r,n,11,0,2025-04-03_11h34.04.162,VisualSearchFaces,2024.2.4,Win32,59.95203837,,,,,,,,1100.094,1100.2,1100.2,1102.194,block3,f,1,0.687,,0,29,29,20,1,0,centre,neutral,no_target,,,,,,,,,,,,,,,,
,,,,,552569,m,y,r,n,11,0,2025-04-03_11h34.04.162,VisualSearchFaces,2024.2.4,Win32,59.95203837,,,,,,,,1103.194,1103.309,1103.309,1105.308,block3,j,1,0.54,,0,30,30,14,1,1,bottom_right,friendly,neutral,,,,,,,,,,,,,,,,
,,,,,552569,m,y,r,n,11,0,2025-04-03_11h34.04.162,VisualSearchFaces,2024.2.4,Win32,59.95203837,,,,,,,,1106.311,1106.425,1106.426,1108.424,block3,f,1,0.548,,0,31,31,28,1,0,bottom_left,neutral,no_target,,,,,,,,,,,,,,,,
,,,,,552569,m,y,r,n,11,0,2025-04-03_11h34.04.162,VisualSearchFaces,2024.2.4,Win32,59.95203837,,,,,,,,1109.426,1109.542,1109.542,1111.541,block3,j,1,0.54,,0,32,32,5,1,1,centre,neutral,threatening,,,,,,,,,,,,,,,,
,,,,,552569,m,y,r,n,11,0,2025-04-03_11h34.04.162,VisualSearchFaces,2024.2.4,Win32,59.95203837,,,,,,,,1112.543,1112.658,1112.658,1114.658,block3,j,1,0.826,,0,33,33,17,1,1,top_right,threatening,neutral,,,,,,,,,,,,,,,,
,,,,,552569,m,y,r,n,11,0,2025-04-03_11h34.04.162,VisualSearchFaces,2024.2.4,Win32,59.95203837,,,,,,,,1115.659,1115.759,1115.759,1117.757,block3,f,1,0.694,,0,34,34,31,1,0,top_left,friendly,no_target,,,,,,,,,,,,,,,,
,,,,,552569,m,y,r,n,11,0,2025-04-03_11h34.04.162,VisualSearchFaces,2024.2.4,Win32,59.95203837,,,,,,,,1118.757,1118.857,1118.857,1120.856,block3,j,1,0.572,,0,35,35,3,1,1,bottom_left,neutral,friendly,,,,,,,,,,,,,,,,
,,,,,552569,m,y,r,n,11,0,2025-04-03_11h34.04.162,VisualSearchFaces,2024.2.4,Win32,59.95203837,,,,,,,,1121.858,1121.973,1121.973,1123.973,block3,f,1,0.536,,0,36,36,26,1,0,top_left,neutral,no_target,,,,,,,,,,,,,,,,
,,,,,552569,m,y,r,n,11,0,2025-04-03_11h34.04.162,VisualSearchFaces,2024.2.4,Win32,59.95203837,,,,,,,,1124.974,1125.089,1125.089,1127.09,block3,f,1,0.639,,0,37,37,24,1,0,bottom_right,neutral,no_target,,,,,,,,,,,,,,,,
,,,,,552569,m,y,r,n,11,0,2025-04-03_11h34.04.162,VisualSearchFaces,2024.2.4,Win32,59.95203837,,,,,,,,1128.092,1128.206,1128.206,1130.206,block3,j,1,0.731,,0,38,38,2,1,1,top_right,neutral,friendly,,,,,,,,,,,,,,,,
,,,,,552569,m,y,r,n,11,0,2025-04-03_11h34.04.162,VisualSearchFaces,2024.2.4,Win32,59.95203837,,,,,,,,1131.209,1131.329,1131.33,1133.322,block3,f,1,0.967,,0,39,39,32,1,0,top_right,friendly,no_target,,,,,,,,,,,,,,,,
,,,,,552569,m,y,r,n,11,0,2025-04-03_11h34.04.162,VisualSearchFaces,2024.2.4,Win32,59.95203837,,,,,,,,1134.323,1134.438,1134.438,1136.438,block3,j,1,1.204,,1,0,40,7,1,1,top_right,neutral,threatening,,,,,,,,,,,,,,,,
,,,,,552569,m,y,r,n,11,0,2025-04-03_11h34.04.162,VisualSearchFaces,2024.2.4,Win32,59.95203837,,,,,,,,1137.439,1137.555,1137.555,1139.554,block3,j,1,1.022,,1,1,41,18,1,1,bottom_left,threatening,neutral,,,,,,,,,,,,,,,,
,,,,,552569,m,y,r,n,11,0,2025-04-03_11h34.04.162,VisualSearchFaces,2024.2.4,Win32,59.95203837,,,,,,,,1140.557,1140.671,1140.671,1142.671,block3,j,1,0.595,,1,2,42,17,1,1,top_right,threatening,neutral,,,,,,,,,,,,,,,,
,,,,,552569,m,y,r,n,11,0,2025-04-03_11h34.04.162,VisualSearchFaces,2024.2.4,Win32,59.95203837,,,,,,,,1143.672,1143.771,1143.771,1145.771,block3,f,0,0.63,,1,3,43,19,1,1,bottom_right,threatening,neutral,,,,,,,,,,,,,,,,
,,,,,552569,m,y,r,n,11,0,2025-04-03_11h34.04.162,VisualSearchFaces,2024.2.4,Win32,59.95203837,,,,,,,,1146.771,1146.871,1146.871,1148.87,block3,f,1,0.648,,1,4,44,37,1,0,top_right,threatening,no_target,,,,,,,,,,,,,,,,
,,,,,552569,m,y,r,n,11,0,2025-04-03_11h34.04.162,VisualSearchFaces,2024.2.4,Win32,59.95203837,,,,,,,,1149.871,1149.987,1149.987,1151.987,block3,f,1,0.606,,1,5,45,20,1,0,centre,neutral,no_target,,,,,,,,,,,,,,,,
,,,,,552569,m,y,r,n,11,0,2025-04-03_11h34.04.162,VisualSearchFaces,2024.2.4,Win32,59.95203837,,,,,,,,1152.987,1153.103,1153.103,1155.102,block3,f,1,0.956,,1,6,46,32,1,0,top_right,friendly,no_target,,,,,,,,,,,,,,,,
,,,,,552569,m,y,r,n,11,0,2025-04-03_11h34.04.162,VisualSearchFaces,2024.2.4,Win32,59.95203837,,,,,,,,1156.106,1156.204,1156.204,1158.203,block3,f,1,0.508,,1,7,47,30,1,0,centre,friendly,no_target,,,,,,,,,,,,,,,,
,,,,,552569,m,y,r,n,11,0,2025-04-03_11h34.04.162,VisualSearchFaces,2024.2.4,Win32,59.95203837,,,,,,,,1159.203,1159.302,1159.303,1161.302,block3,f,1,0.519,,1,8,48,25,1,0,centre,neutral,no_target,,,,,,,,,,,,,,,,
,,,,,552569,m,y,r,n,11,0,2025-04-03_11h34.04.162,VisualSearchFaces,2024.2.4,Win32,59.95203837,,,,,,,,1162.303,1162.419,1162.419,1164.418,block3,f,1,0.427,,1,9,49,21,1,0,top_left,neutral,no_target,,,,,,,,,,,,,,,,
,,,,,552569,m,y,r,n,11,0,2025-04-03_11h34.04.162,VisualSearchFaces,2024.2.4,Win32,59.95203837,,,,,,,,1165.419,1165.534,1165.534,1167.535,block3,j,0,0.712,,1,10,50,34,1,0,bottom_right,friendly,no_target,,,,,,,,,,,,,,,,
,,,,,552569,m,y,r,n,11,0,2025-04-03_11h34.04.162,VisualSearchFaces,2024.2.4,Win32,59.95203837,,,,,,,,1168.535,1168.637,1168.637,1170.634,block3,f,1,0.714,,1,11,51,38,1,0,bottom_left,threatening,no_target,,,,,,,,,,,,,,,,
,,,,,552569,m,y,r,n,11,0,2025-04-03_11h34.04.162,VisualSearchFaces,2024.2.4,Win32,59.95203837,,,,,,,,1171.637,1171.741,1171.741,1173.734,block3,f,1,0.5,,1,12,52,23,1,0,bottom_left,neutral,no_target,,,,,,,,,,,,,,,,
,,,,,552569,m,y,r,n,11,0,2025-04-03_11h34.04.162,VisualSearchFaces,2024.2.4,Win32,59.95203837,,,,,,,,1174.737,1174.85,1174.85,1176.851,block3,j,1,0.686,,1,13,53,12,1,1,top_right,friendly,neutral,,,,,,,,,,,,,,,,
,,,,,552569,m,y,r,n,11,0,2025-04-03_11h34.04.162,VisualSearchFaces,2024.2.4,Win32,59.95203837,,,,,,,,1177.851,1177.951,1177.951,1179.95,block3,f,1,0.492,,1,14,54,28,1,0,bottom_left,neutral,no_target,,,,,,,,,,,,,,,,
,,,,,552569,m,y,r,n,11,0,2025-04-03_11h34.04.162,VisualSearchFaces,2024.2.4,Win32,59.95203837,,,,,,,,1180.951,1181.05,1181.05,1183.049,block3,f,1,0.393,,1,15,55,24,1,0,bottom_right,neutral,no_target,,,,,,,,,,,,,,,,
,,,,,552569,m,y,r,n,11,0,2025-04-03_11h34.04.162,VisualSearchFaces,2024.2.4,Win32,59.95203837,,,,,,,,1184.05,1184.149,1184.149,1186.149,block3,f,1,0.423,,1,16,56,26,1,0,top_left,neutral,no_target,,,,,,,,,,,,,,,,
,,,,,552569,m,y,r,n,11,0,2025-04-03_11h34.04.162,VisualSearchFaces,2024.2.4,Win32,59.95203837,,,,,,,,1187.152,1187.265,1187.265,1189.272,block3,j,1,0.512,,1,17,57,15,1,1,centre,threatening,neutral,,,,,,,,,,,,,,,,
,,,,,552569,m,y,r,n,11,0,2025-04-03_11h34.04.162,VisualSearchFaces,2024.2.4,Win32,59.95203837,,,,,,,,1190.268,1190.382,1190.382,1192.382,block3,j,1,0.619,,1,18,58,4,1,1,bottom_right,neutral,friendly,,,,,,,,,,,,,,,,
,,,,,552569,m,y,r,n,11,0,2025-04-03_11h34.04.162,VisualSearchFaces,2024.2.4,Win32,59.95203837,,,,,,,,1193.382,1193.498,1193.498,1195.498,block3,j,1,0.664,,1,19,59,10,1,1,centre,friendly,neutral,,,,,,,,,,,,,,,,
,,,,,552569,m,y,r,n,11,0,2025-04-03_11h34.04.162,VisualSearchFaces,2024.2.4,Win32,59.95203837,,,,,,,,1196.499,1196.598,1196.598,1198.599,block3,j,1,0.548,,1,20,60,0,1,1,centre,neutral,friendly,,,,,,,,,,,,,,,,
,,,,,552569,m,y,r,n,11,0,2025-04-03_11h34.04.162,VisualSearchFaces,2024.2.4,Win32,59.95203837,,,,,,,,1199.598,1199.698,1199.698,1201.697,block3,j,1,0.611,,1,21,61,13,1,1,bottom_left,friendly,neutral,,,,,,,,,,,,,,,,
,,,,,552569,m,y,r,n,11,0,2025-04-03_11h34.04.162,VisualSearchFaces,2024.2.4,Win32,59.95203837,,,,,,,,1202.698,1202.799,1202.799,1204.787,block3,j,0,0.513,,1,22,62,29,1,0,bottom_right,neutral,no_target,,,,,,,,,,,,,,,,
,,,,,552569,m,y,r,n,11,0,2025-04-03_11h34.04.162,VisualSearchFaces,2024.2.4,Win32,59.95203837,,,,,,,,1205.798,1205.897,1205.897,1207.896,block3,j,1,0.446,,1,23,63,5,1,1,centre,neutral,threatening,,,,,,,,,,,,,,,,
,,,,,552569,m,y,r,n,11,0,2025-04-03_11h34.04.162,VisualSearchFaces,2024.2.4,Win32,59.95203837,,,,,,,,1208.888,1208.996,1208.996,1210.996,block3,j,1,0.494,,1,24,64,11,1,1,top_left,friendly,neutral,,,,,,,,,,,,,,,,
,,,,,552569,m,y,r,n,11,0,2025-04-03_11h34.04.162,VisualSearchFaces,2024.2.4,Win32,59.95203837,,,,,,,,1211.997,1212.112,1212.112,1214.114,block3,f,1,0.736,,1,25,65,31,1,0,top_left,friendly,no_target,,,,,,,,,,,,,,,,
,,,,,552569,m,y,r,n,11,0,2025-04-03_11h34.04.162,VisualSearchFaces,2024.2.4,Win32,59.95203837,,,,,,,,1215.114,1215.229,1215.229,1217.229,block3,f,1,0.808,,1,26,66,36,1,0,top_left,threatening,no_target,,,,,,,,,,,,,,,,
,,,,,552569,m,y,r,n,11,0,2025-04-03_11h34.04.162,VisualSearchFaces,2024.2.4,Win32,59.95203837,,,,,,,,1218.231,1218.345,1218.345,1220.345,block3,j,1,0.761,,1,27,67,6,1,1,top_left,neutral,threatening,,,,,,,,,,,,,,,,
,,,,,552569,m,y,r,n,11,0,2025-04-03_11h34.04.162,VisualSearchFaces,2024.2.4,Win32,59.95203837,,,,,,,,1221.346,1221.445,1221.445,1223.445,block3,j,1,0.57,,1,28,68,1,1,1,top_left,neutral,friendly,,,,,,,,,,,,,,,,
,,,,,552569,m,y,r,n,11,0,2025-04-03_11h34.04.162,VisualSearchFaces,2024.2.4,Win32,59.95203837,,,,,,,,1224.447,1224.568,1224.568,1226.561,block3,j,1,0.853,,1,29,69,16,1,1,top_left,threatening,neutral,,,,,,,,,,,,,,,,
,,,,,552569,m,y,r,n,11,0,2025-04-03_11h34.04.162,VisualSearchFaces,2024.2.4,Win32,59.95203837,,,,,,,,1227.562,1227.662,1227.662,1229.662,block3,j,1,0.625,,1,30,70,14,1,1,bottom_right,friendly,neutral,,,,,,,,,,,,,,,,
,,,,,552569,m,y,r,n,11,0,2025-04-03_11h34.04.162,VisualSearchFaces,2024.2.4,Win32,59.95203837,,,,,,,,1230.662,1230.777,1230.777,1232.777,block3,j,1,0.746,,1,31,71,9,1,1,bottom_right,neutral,threatening,,,,,,,,,,,,,,,,
,,,,,552569,m,y,r,n,11,0,2025-04-03_11h34.04.162,VisualSearchFaces,2024.2.4,Win32,59.95203837,,,,,,,,1233.777,1233.893,1233.893,1235.893,block3,f,1,0.675,,1,32,72,35,1,0,centre,threatening,no_target,,,,,,,,,,,,,,,,
,,,,,552569,m,y,r,n,11,0,2025-04-03_11h34.04.162,VisualSearchFaces,2024.2.4,Win32,59.95203837,,,,,,,,1236.894,1236.993,1236.993,1238.993,block3,f,1,0.86,,1,33,73,27,1,0,top_right,neutral,no_target,,,,,,,,,,,,,,,,
,,,,,552569,m,y,r,n,11,0,2025-04-03_11h34.04.162,VisualSearchFaces,2024.2.4,Win32,59.95203837,,,,,,,,1239.999,1240.109,1240.109,1242.109,block3,j,1,0.819,,1,34,74,2,1,1,top_right,neutral,friendly,,,,,,,,,,,,,,,,
,,,,,552569,m,y,r,n,11,0,2025-04-03_11h34.04.162,VisualSearchFaces,2024.2.4,Win32,59.95203837,,,,,,,,1243.11,1243.211,1243.211,1245.209,block3,f,1,0.658,,1,35,75,39,1,0,bottom_right,threatening,no_target,,,,,,,,,,,,,,,,
,,,,,552569,m,y,r,n,11,0,2025-04-03_11h34.04.162,VisualSearchFaces,2024.2.4,Win32,59.95203837,,,,,,,,1246.214,1246.325,1246.325,1248.325,block3,j,1,0.816,,1,36,76,8,1,1,bottom_left,neutral,threatening,,,,,,,,,,,,,,,,
,,,,,552569,m,y,r,n,11,0,2025-04-03_11h34.04.162,VisualSearchFaces,2024.2.4,Win32,59.95203837,,,,,,,,1249.315,1249.425,1249.425,1251.424,block3,f,1,0.681,,1,37,77,22,1,0,top_right,neutral,no_target,,,,,,,,,,,,,,,,
,,,,,552569,m,y,r,n,11,0,2025-04-03_11h34.04.162,VisualSearchFaces,2024.2.4,Win32,59.95203837,,,,,,,,1252.425,1252.526,1252.526,1254.524,block3,j,1,0.754,,1,38,78,3,1,1,bottom_left,neutral,friendly,,,,,,,,,,,,,,,,
,,,,,552569,m,y,r,n,11,0,2025-04-03_11h34.04.162,VisualSearchFaces,2024.2.4,Win32,59.95203837,,,,,,,,1255.525,1255.629,1255.629,1257.623,block3,f,1,0.871,,1,39,79,33,1,0,bottom_left,friendly,no_target,,,,,,,,,,,,,,,,
,,,,,552569,m,y,r,n,11,0,2025-04-03_11h34.04.162,VisualSearchFaces,2024.2.4,Win32,59.95203837,,,1286.659,1289.807,space,3.122,,1290.805,1290.925,1290.925,1292.92,block4,j,1,1.473,,0,0,0,11,1,1,top_left,friendly,neutral,1257.625,1286.656,space,29.008,,,,,,,,,,,,
,,,,,552569,m,y,r,n,11,0,2025-04-03_11h34.04.162,VisualSearchFaces,2024.2.4,Win32,59.95203837,,,,,,,,1293.921,1294.036,1294.036,1296.036,block4,f,1,0.683,,0,1,1,33,1,0,bottom_left,friendly,no_target,,,,,,,,,,,,,,,,
,,,,,552569,m,y,r,n,11,0,2025-04-03_11h34.04.162,VisualSearchFaces,2024.2.4,Win32,59.95203837,,,,,,,,1297.037,1297.152,1297.152,1299.153,block4,f,1,0.484,,0,2,2,20,1,0,centre,neutral,no_target,,,,,,,,,,,,,,,,
,,,,,552569,m,y,r,n,11,0,2025-04-03_11h34.04.162,VisualSearchFaces,2024.2.4,Win32,59.95203837,,,,,,,,1300.155,1300.269,1300.269,1302.269,block4,j,1,0.634,,0,3,3,4,1,1,bottom_right,neutral,friendly,,,,,,,,,,,,,,,,
,,,,,552569,m,y,r,n,11,0,2025-04-03_11h34.04.162,VisualSearchFaces,2024.2.4,Win32,59.95203837,,,,,,,,1303.27,1303.371,1303.371,1305.368,block4,f,1,0.881,,0,4,4,36,1,0,top_left,threatening,no_target,,,,,,,,,,,,,,,,
,,,,,552569,m,y,r,n,11,0,2025-04-03_11h34.04.162,VisualSearchFaces,2024.2.4,Win32,59.95203837,,,,,,,,1306.37,1306.485,1306.485,1308.485,block4,f,1,0.732,,0,5,5,24,1,0,bottom_right,neutral,no_target,,,,,,,,,,,,,,,,
,,,,,552569,m,y,r,n,11,0,2025-04-03_11h34.04.162,VisualSearchFaces,2024.2.4,Win32,59.95203837,,,,,,,,1309.487,1309.601,1309.601,1311.601,block4,f,1,0.746,,0,6,6,32,1,0,top_right,friendly,no_target,,,,,,,,,,,,,,,,
,,,,,552569,m,y,r,n,11,0,2025-04-03_11h34.04.162,VisualSearchFaces,2024.2.4,Win32,59.95203837,,,,,,,,1312.602,1312.705,1312.705,1314.704,block4,f,1,1.286,,0,7,7,39,1,0,bottom_right,threatening,no_target,,,,,,,,,,,,,,,,
,,,,,552569,m,y,r,n,11,0,2025-04-03_11h34.04.162,VisualSearchFaces,2024.2.4,Win32,59.95203837,,,,,,,,1315.701,1315.802,1315.802,1317.8,block4,f,1,0.692,,0,8,8,21,1,0,top_left,neutral,no_target,,,,,,,,,,,,,,,,
,,,,,552569,m,y,r,n,11,0,2025-04-03_11h34.04.162,VisualSearchFaces,2024.2.4,Win32,59.95203837,,,,,,,,1318.801,1318.902,1318.903,1320.9,block4,j,1,0.761,,0,9,9,19,1,1,bottom_right,threatening,neutral,,,,,,,,,,,,,,,,
,,,,,552569,m,y,r,n,11,0,2025-04-03_11h34.04.162,VisualSearchFaces,2024.2.4,Win32,59.95203837,,,,,,,,1321.9,1322.001,1322.001,1323.999,block4,f,1,0.587,,0,10,10,26,1,0,top_left,neutral,no_target,,,,,,,,,,,,,,,,
,,,,,552569,m,y,r,n,11,0,2025-04-03_11h34.04.162,VisualSearchFaces,2024.2.4,Win32,59.95203837,,,,,,,,1325,1325.116,1325.116,1327.116,block4,j,1,0.612,,0,11,11,7,1,1,top_right,neutral,threatening,,,,,,,,,,,,,,,,
,,,,,552569,m,y,r,n,11,0,2025-04-03_11h34.04.162,VisualSearchFaces,2024.2.4,Win32,59.95203837,,,,,,,,1328.117,1328.217,1328.217,1330.215,block4,f,0,0.731,,0,12,12,10,1,1,centre,friendly,neutral,,,,,,,,,,,,,,,,
,,,,,552569,m,y,r,n,11,0,2025-04-03_11h34.04.162,VisualSearchFaces,2024.2.4,Win32,59.95203837,,,,,,,,1331.216,1331.332,1331.332,1333.332,block4,j,1,0.546,,0,13,13,0,1,1,centre,neutral,friendly,,,,,,,,,,,,,,,,
,,,,,552569,m,y,r,n,11,0,2025-04-03_11h34.04.162,VisualSearchFaces,2024.2.4,Win32,59.95203837,,,,,,,,1334.333,1334.448,1334.448,1336.448,block4,f,1,0.535,,0,14,14,22,1,0,top_right,neutral,no_target,,,,,,,,,,,,,,,,
,,,,,552569,m,y,r,n,11,0,2025-04-03_11h34.04.162,VisualSearchFaces,2024.2.4,Win32,59.95203837,,,,,,,,1337.451,1337.564,1337.564,1339.564,block4,f,0,0.567,,0,15,15,13,1,1,bottom_left,friendly,neutral,,,,,,,,,,,,,,,,
,,,,,552569,m,y,r,n,11,0,2025-04-03_11h34.04.162,VisualSearchFaces,2024.2.4,Win32,59.95203837,,,,,,,,1340.565,1340.681,1340.681,1342.68,block4,f,1,0.606,,0,16,16,29,1,0,bottom_right,neutral,no_target,,,,,,,,,,,,,,,,
,,,,,552569,m,y,r,n,11,0,2025-04-03_11h34.04.162,VisualSearchFaces,2024.2.4,Win32,59.95203837,,,,,,,,1343.682,1343.797,1343.797,1345.797,block4,f,1,0.54,,0,17,17,27,1,0,top_right,neutral,no_target,,,,,,,,,,,,,,,,
,,,,,552569,m,y,r,n,11,0,2025-04-03_11h34.04.162,VisualSearchFaces,2024.2.4,Win32,59.95203837,,,,,,,,1346.799,1346.902,1346.902,1348.898,block4,f,0,1.194,,0,18,18,17,1,1,top_right,threatening,neutral,,,,,,,,,,,,,,,,
,,,,,552569,m,y,r,n,11,0,2025-04-03_11h34.04.162,VisualSearchFaces,2024.2.4,Win32,59.95203837,,,,,,,,1349.898,1350.012,1350.012,1352.012,block4,j,1,0.701,,0,19,19,6,1,1,top_left,neutral,threatening,,,,,,,,,,,,,,,,
,,,,,552569,m,y,r,n,11,0,2025-04-03_11h34.04.162,VisualSearchFaces,2024.2.4,Win32,59.95203837,,,,,,,,1353.014,1353.129,1353.129,1355.128,block4,f,1,0.536,,0,20,20,28,1,0,bottom_left,neutral,no_target,,,,,,,,,,,,,,,,
,,,,,552569,m,y,r,n,11,0,2025-04-03_11h34.04.162,VisualSearchFaces,2024.2.4,Win32,59.95203837,,,,,,,,1356.13,1356.246,1356.246,1358.245,block4,j,1,1.296,,0,21,21,18,1,1,bottom_left,threatening,neutral,,,,,,,,,,,,,,,,
,,,,,552569,m,y,r,n,11,0,2025-04-03_11h34.04.162,VisualSearchFaces,2024.2.4,Win32,59.95203837,,,,,,,,1359.246,1359.361,1359.361,1361.351,block4,f,1,1.223,,0,22,22,30,1,0,centre,friendly,no_target,,,,,,,,,,,,,,,,
,,,,,552569,m,y,r,n,11,0,2025-04-03_11h34.04.162,VisualSearchFaces,2024.2.4,Win32,59.95203837,,,,,,,,1362.362,1362.462,1362.462,1364.461,block4,j,1,0.821,,0,23,23,15,1,1,centre,threatening,neutral,,,,,,,,,,,,,,,,
,,,,,552569,m,y,r,n,11,0,2025-04-03_11h34.04.162,VisualSearchFaces,2024.2.4,Win32,59.95203837,,,,,,,,1365.462,1365.561,1365.561,1367.56,block4,j,1,0.954,,0,24,24,16,1,1,top_left,threatening,neutral,,,,,,,,,,,,,,,,
,,,,,552569,m,y,r,n,11,0,2025-04-03_11h34.04.162,VisualSearchFaces,2024.2.4,Win32,59.95203837,,,,,,,,1368.562,1368.662,1368.662,1370.66,block4,j,1,0.584,,0,25,25,2,1,1,top_right,neutral,friendly,,,,,,,,,,,,,,,,
,,,,,552569,m,y,r,n,11,0,2025-04-03_11h34.04.162,VisualSearchFaces,2024.2.4,Win32,59.95203837,,,,,,,,1371.661,1371.777,1371.777,1373.777,block4,j,1,0.989,,0,26,26,3,1,1,bottom_left,neutral,friendly,,,,,,,,,,,,,,,,
,,,,,552569,m,y,r,n,11,0,2025-04-03_11h34.04.162,VisualSearchFaces,2024.2.4,Win32,59.95203837,,,,,,,,1374.778,1374.893,1374.893,1376.893,block4,j,1,0.527,,0,27,27,9,1,1,bottom_right,neutral,threatening,,,,,,,,,,,,,,,,
,,,,,552569,m,y,r,n,11,0,2025-04-03_11h34.04.162,VisualSearchFaces,2024.2.4,Win32,59.95203837,,,,,,,,1377.894,1377.996,1377.996,1379.995,block4,f,1,1.067,,0,28,28,34,1,0,bottom_right,friendly,no_target,,,,,,,,,,,,,,,,
,,,,,552569,m,y,r,n,11,0,2025-04-03_11h34.04.162,VisualSearchFaces,2024.2.4,Win32,59.95203837,,,,,,,,1381,1381.109,1381.109,1383.109,block4,f,1,0.598,,0,29,29,23,1,0,bottom_left,neutral,no_target,,,,,,,,,,,,,,,,
,,,,,552569,m,y,r,n,11,0,2025-04-03_11h34.04.162,VisualSearchFaces,2024.2.4,Win32,59.95203837,,,,,,,,1384.11,1384.226,1384.226,1386.226,block4,j,1,0.552,,0,30,30,1,1,1,top_left,neutral,friendly,,,,,,,,,,,,,,,,
,,,,,552569,m,y,r,n,11,0,2025-04-03_11h34.04.162,VisualSearchFaces,2024.2.4,Win32,59.95203837,,,,,,,,1387.227,1387.341,1387.341,1389.342,block4,f,1,0.598,,0,31,31,25,1,0,centre,neutral,no_target,,,,,,,,,,,,,,,,
,,,,,552569,m,y,r,n,11,0,2025-04-03_11h34.04.162,VisualSearchFaces,2024.2.4,Win32,59.95203837,,,,,,,,1390.342,1390.446,1390.446,1392.441,block4,j,1,0.654,,0,32,32,14,1,1,bottom_right,friendly,neutral,,,,,,,,,,,,,,,,
,,,,,552569,m,y,r,n,11,0,2025-04-03_11h34.04.162,VisualSearchFaces,2024.2.4,Win32,59.95203837,,,,,,,,1393.446,1393.557,1393.557,1395.56,block4,j,1,0.618,,0,33,33,12,1,1,top_right,friendly,neutral,,,,,,,,,,,,,,,,
,,,,,552569,m,y,r,n,11,0,2025-04-03_11h34.04.162,VisualSearchFaces,2024.2.4,Win32,59.95203837,,,,,,,,1396.558,1396.657,1396.657,1398.657,block4,j,1,1.097,,0,34,34,5,1,1,centre,neutral,threatening,,,,,,,,,,,,,,,,
,,,,,552569,m,y,r,n,11,0,2025-04-03_11h34.04.162,VisualSearchFaces,2024.2.4,Win32,59.95203837,,,,,,,,1399.649,1399.757,1399.757,1401.757,block4,j,1,0.63,,0,35,35,8,1,1,bottom_left,neutral,threatening,,,,,,,,,,,,,,,,
,,,,,552569,m,y,r,n,11,0,2025-04-03_11h34.04.162,VisualSearchFaces,2024.2.4,Win32,59.95203837,,,,,,,,1402.757,1402.863,1402.863,1404.86,block4,f,1,1.106,,0,36,36,35,1,0,centre,threatening,no_target,,,,,,,,,,,,,,,,
,,,,,552569,m,y,r,n,11,0,2025-04-03_11h34.04.162,VisualSearchFaces,2024.2.4,Win32,59.95203837,,,,,,,,1405.859,1405.973,1405.973,1407.973,block4,f,1,0.699,,0,37,37,38,1,0,bottom_left,threatening,no_target,,,,,,,,,,,,,,,,
,,,,,552569,m,y,r,n,11,0,2025-04-03_11h34.04.162,VisualSearchFaces,2024.2.4,Win32,59.95203837,,,,,,,,1408.973,1409.076,1409.076,1411.072,block4,f,1,0.827,,0,38,38,31,1,0,top_left,friendly,no_target,,,,,,,,,,,,,,,,
,,,,,552569,m,y,r,n,11,0,2025-04-03_11h34.04.162,VisualSearchFaces,2024.2.4,Win32,59.95203837,,,,,,,,1412.073,1412.189,1412.189,1414.189,block4,f,1,0.606,,0,39,39,37,1,0,top_right,threatening,no_target,,,,,,,,,,,,,,,,
,,,,,552569,m,y,r,n,11,0,2025-04-03_11h34.04.162,VisualSearchFaces,2024.2.4,Win32,59.95203837,,,,,,,,1415.189,1415.297,1415.297,1417.288,block4,j,1,0.78,,1,0,40,12,1,1,top_right,friendly,neutral,,,,,,,,,,,,,,,,
,,,,,552569,m,y,r,n,11,0,2025-04-03_11h34.04.162,VisualSearchFaces,2024.2.4,Win32,59.95203837,,,,,,,,1418.29,1418.397,1418.397,1420.388,block4,j,1,0.802,,1,1,41,4,1,1,bottom_right,neutral,friendly,,,,,,,,,,,,,,,,
,,,,,552569,m,y,r,n,11,0,2025-04-03_11h34.04.162,VisualSearchFaces,2024.2.4,Win32,59.95203837,,,,,,,,1421.388,1421.504,1421.504,1423.504,block4,f,1,0.883,,1,2,42,36,1,0,top_left,threatening,no_target,,,,,,,,,,,,,,,,
,,,,,552569,m,y,r,n,11,0,2025-04-03_11h34.04.162,VisualSearchFaces,2024.2.4,Win32,59.95203837,,,,,,,,1424.505,1424.621,1424.621,1426.622,block4,j,1,0.839,,1,3,43,8,1,1,bottom_left,neutral,threatening,,,,,,,,,,,,,,,,
,,,,,552569,m,y,r,n,11,0,2025-04-03_11h34.04.162,VisualSearchFaces,2024.2.4,Win32,59.95203837,,,,,,,,1427.621,1427.743,1427.743,1429.736,block4,f,0,0.679,,1,4,44,0,1,1,centre,neutral,friendly,,,,,,,,,,,,,,,,
,,,,,552569,m,y,r,n,11,0,2025-04-03_11h34.04.162,VisualSearchFaces,2024.2.4,Win32,59.95203837,,,,,,,,1430.737,1430.854,1430.854,1432.852,block4,j,1,1.04,,1,5,45,17,1,1,top_right,threatening,neutral,,,,,,,,,,,,,,,,
,,,,,552569,m,y,r,n,11,0,2025-04-03_11h34.04.162,VisualSearchFaces,2024.2.4,Win32,59.95203837,,,,,,,,1433.856,1433.97,1433.97,1435.969,block4,f,1,0.871,,1,6,46,30,1,0,centre,friendly,no_target,,,,,,,,,,,,,,,,
,,,,,552569,m,y,r,n,11,0,2025-04-03_11h34.04.162,VisualSearchFaces,2024.2.4,Win32,59.95203837,,,,,,,,1436.97,1437.078,1437.078,1439.07,block4,j,1,0.841,,1,7,47,9,1,1,bottom_right,neutral,threatening,,,,,,,,,,,,,,,,
,,,,,552569,m,y,r,n,11,0,2025-04-03_11h34.04.162,VisualSearchFaces,2024.2.4,Win32,59.95203837,,,,,,,,1440.07,1440.174,1440.174,1442.168,block4,f,1,0.772,,1,8,48,31,1,0,top_left,friendly,no_target,,,,,,,,,,,,,,,,
,,,,,552569,m,y,r,n,11,0,2025-04-03_11h34.04.162,VisualSearchFaces,2024.2.4,Win32,59.95203837,,,,,,,,1443.17,1443.285,1443.285,1445.285,block4,j,1,1.599,,1,9,49,15,1,1,centre,threatening,neutral,,,,,,,,,,,,,,,,
,,,,,552569,m,y,r,n,11,0,2025-04-03_11h34.04.162,VisualSearchFaces,2024.2.4,Win32,59.95203837,,,,,,,,1446.289,1446.401,1446.401,1448.401,block4,j,1,1.403,,1,10,50,18,1,1,bottom_left,threatening,neutral,,,,,,,,,,,,,,,,
,,,,,552569,m,y,r,n,11,0,2025-04-03_11h34.04.162,VisualSearchFaces,2024.2.4,Win32,59.95203837,,,,,,,,1449.403,1449.518,1449.518,1451.517,block4,f,1,1.076,,1,11,51,26,1,0,top_left,neutral,no_target,,,,,,,,,,,,,,,,
,,,,,552569,m,y,r,n,11,0,2025-04-03_11h34.04.162,VisualSearchFaces,2024.2.4,Win32,59.95203837,,,,,,,,1452.518,1452.617,1452.617,1454.617,block4,j,1,1.408,,1,12,52,14,1,1,bottom_right,friendly,neutral,,,,,,,,,,,,,,,,
,,,,,552569,m,y,r,n,11,0,2025-04-03_11h34.04.162,VisualSearchFaces,2024.2.4,Win32,59.95203837,,,,,,,,1455.618,1455.724,1455.724,1457.717,block4,f,1,0.64,,1,13,53,21,1,0,top_left,neutral,no_target,,,,,,,,,,,,,,,,
,,,,,552569,m,y,r,n,11,0,2025-04-03_11h34.04.162,VisualSearchFaces,2024.2.4,Win32,59.95203837,,,,,,,,1458.718,1458.817,1458.817,1460.817,block4,f,1,0.714,,1,14,54,34,1,0,bottom_right,friendly,no_target,,,,,,,,,,,,,,,,
,,,,,552569,m,y,r,n,11,0,2025-04-03_11h34.04.162,VisualSearchFaces,2024.2.4,Win32,59.95203837,,,,,,,,1461.817,1461.917,1461.917,1463.917,block4,f,1,0.741,,1,15,55,24,1,0,bottom_right,neutral,no_target,,,,,,,,,,,,,,,,
,,,,,552569,m,y,r,n,11,0,2025-04-03_11h34.04.162,VisualSearchFaces,2024.2.4,Win32,59.95203837,,,,,,,,1464.916,1465.02,1465.02,1467.017,block4,f,1,0.769,,1,16,56,37,1,0,top_right,threatening,no_target,,,,,,,,,,,,,,,,
,,,,,552569,m,y,r,n,11,0,2025-04-03_11h34.04.162,VisualSearchFaces,2024.2.4,Win32,59.95203837,,,,,,,,1468.018,1468.132,1468.132,1470.131,block4,j,1,0.732,,1,17,57,1,1,1,top_left,neutral,friendly,,,,,,,,,,,,,,,,
,,,,,552569,m,y,r,n,11,0,2025-04-03_11h34.04.162,VisualSearchFaces,2024.2.4,Win32,59.95203837,,,,,,,,1471.135,1471.249,1471.249,1473.248,block4,j,1,0.743,,1,18,58,7,1,1,top_right,neutral,threatening,,,,,,,,,,,,,,,,
,,,,,552569,m,y,r,n,11,0,2025-04-03_11h34.04.162,VisualSearchFaces,2024.2.4,Win32,59.95203837,,,,,,,,1474.249,1474.349,1474.349,1476.338,block4,f,1,0.622,,1,19,59,39,1,0,bottom_right,threatening,no_target,,,,,,,,,,,,,,,,
,,,,,552569,m,y,r,n,11,0,2025-04-03_11h34.04.162,VisualSearchFaces,2024.2.4,Win32,59.95203837,,,,,,,,1477.349,1477.447,1477.448,1479.448,block4,f,1,0.561,,1,20,60,27,1,0,top_right,neutral,no_target,,,,,,,,,,,,,,,,
,,,,,552569,m,y,r,n,11,0,2025-04-03_11h34.04.162,VisualSearchFaces,2024.2.4,Win32,59.95203837,,,,,,,,1480.453,1480.563,1480.563,1482.564,block4,f,1,0.39,,1,21,61,28,1,0,bottom_left,neutral,no_target,,,,,,,,,,,,,,,,
,,,,,552569,m,y,r,n,11,0,2025-04-03_11h34.04.162,VisualSearchFaces,2024.2.4,Win32,59.95203837,,,,,,,,1483.566,1483.674,1483.674,1485.664,block4,j,1,0.806,,1,22,62,16,1,1,top_left,threatening,neutral,,,,,,,,,,,,,,,,
,,,,,552569,m,y,r,n,11,0,2025-04-03_11h34.04.162,VisualSearchFaces,2024.2.4,Win32,59.95203837,,,,,,,,1486.664,1486.765,1486.765,1488.763,block4,j,1,1.102,,1,23,63,11,1,1,top_left,friendly,neutral,,,,,,,,,,,,,,,,
,,,,,552569,m,y,r,n,11,0,2025-04-03_11h34.04.162,VisualSearchFaces,2024.2.4,Win32,59.95203837,,,,,,,,1489.769,1489.879,1489.879,1491.879,block4,f,1,0.496,,1,24,64,20,1,0,centre,neutral,no_target,,,,,,,,,,,,,,,,
,,,,,552569,m,y,r,n,11,0,2025-04-03_11h34.04.162,VisualSearchFaces,2024.2.4,Win32,59.95203837,,,,,,,,1492.88,1492.996,1492.996,1494.996,block4,j,1,0.602,,1,25,65,2,1,1,top_right,neutral,friendly,,,,,,,,,,,,,,,,
,,,,,552569,m,y,r,n,11,0,2025-04-03_11h34.04.162,VisualSearchFaces,2024.2.4,Win32,59.95203837,,,,,,,,1495.996,1496.112,1496.112,1498.111,block4,f,1,0.56,,1,26,66,23,1,0,bottom_left,neutral,no_target,,,,,,,,,,,,,,,,
,,,,,552569,m,y,r,n,11,0,2025-04-03_11h34.04.162,VisualSearchFaces,2024.2.4,Win32,59.95203837,,,,,,,,1499.115,1499.228,1499.228,1501.228,block4,j,1,0.561,,1,27,67,13,1,1,bottom_left,friendly,neutral,,,,,,,,,,,,,,,,
,,,,,552569,m,y,r,n,11,0,2025-04-03_11h34.04.162,VisualSearchFaces,2024.2.4,Win32,59.95203837,,,,,,,,1502.229,1502.345,1502.345,1504.344,block4,j,1,0.815,,1,28,68,3,1,1,bottom_left,neutral,friendly,,,,,,,,,,,,,,,,
,,,,,552569,m,y,r,n,11,0,2025-04-03_11h34.04.162,VisualSearchFaces,2024.2.4,Win32,59.95203837,,,,,,,,1505.345,1505.444,1505.444,1507.446,block4,f,0,1.043,,1,29,69,19,1,1,bottom_right,threatening,neutral,,,,,,,,,,,,,,,,
,,,,,552569,m,y,r,n,11,0,2025-04-03_11h34.04.162,VisualSearchFaces,2024.2.4,Win32,59.95203837,,,,,,,,1508.445,1508.549,1508.549,1510.546,block4,f,1,0.878,,1,30,70,29,1,0,bottom_right,neutral,no_target,,,,,,,,,,,,,,,,
,,,,,552569,m,y,r,n,11,0,2025-04-03_11h34.04.162,VisualSearchFaces,2024.2.4,Win32,59.95203837,,,,,,,,1511.544,1511.66,1511.66,1513.662,block4,f,1,0.476,,1,31,71,22,1,0,top_right,neutral,no_target,,,,,,,,,,,,,,,,
,,,,,552569,m,y,r,n,11,0,2025-04-03_11h34.04.162,VisualSearchFaces,2024.2.4,Win32,59.95203837,,,,,,,,1514.661,1514.765,1514.765,1516.76,block4,j,0,0.578,,1,32,72,33,1,0,bottom_left,friendly,no_target,,,,,,,,,,,,,,,,
,,,,,552569,m,y,r,n,11,0,2025-04-03_11h34.04.162,VisualSearchFaces,2024.2.4,Win32,59.95203837,,,,,,,,1517.761,1517.859,1517.859,1519.859,block4,f,1,1.024,,1,33,73,38,1,0,bottom_left,threatening,no_target,,,,,,,,,,,,,,,,
,,,,,552569,m,y,r,n,11,0,2025-04-03_11h34.04.162,VisualSearchFaces,2024.2.4,Win32,59.95203837,,,,,,,,1520.863,1520.976,1520.976,1522.975,block4,f,1,0.689,,1,34,74,25,1,0,centre,neutral,no_target,,,,,,,,,,,,,,,,
,,,,,552569,m,y,r,n,11,0,2025-04-03_11h34.04.162,VisualSearchFaces,2024.2.4,Win32,59.95203837,,,,,,,,1523.977,1524.092,1524.092,1526.092,block4,j,1,1.523,,1,35,75,6,1,1,top_left,neutral,threatening,,,,,,,,,,,,,,,,
,,,,,552569,m,y,r,n,11,0,2025-04-03_11h34.04.162,VisualSearchFaces,2024.2.4,Win32,59.95203837,,,,,,,,1527.094,1527.208,1527.208,1529.208,block4,f,1,0.956,,1,36,76,32,1,0,top_right,friendly,no_target,,,,,,,,,,,,,,,,
,,,,,552569,m,y,r,n,11,0,2025-04-03_11h34.04.162,VisualSearchFaces,2024.2.4,Win32,59.95203837,,,,,,,,1530.21,1530.325,1530.325,1532.325,block4,j,1,0.713,,1,37,77,10,1,1,centre,friendly,neutral,,,,,,,,,,,,,,,,
,,,,,552569,m,y,r,n,11,0,2025-04-03_11h34.04.162,VisualSearchFaces,2024.2.4,Win32,59.95203837,,,,,,,,1533.325,1533.441,1533.441,1535.44,block4,f,1,0.549,,1,38,78,35,1,0,centre,threatening,no_target,,,,,,,,,,,,,,,,
,,,,,552569,m,y,r,n,11,0,2025-04-03_11h34.04.162,VisualSearchFaces,2024.2.4,Win32,59.95203837,,,,,,,,1536.441,1536.545,1536.545,1538.541,block4,j,1,1.176,,1,39,79,5,1,1,centre,neutral,threatening,,,,,,,,,,,,,,,,
,,,,,552569,m,y,r,n,11,0,2025-04-03_11h34.04.162,VisualSearchFaces,2024.2.4,Win32,59.95203837,,,,,,,,,,,,,,,,,,,,,,,,,,1538.543,1784.647,space,246.07,,1784.648,1898.798,"I was presented with squares that were meant to resemble faces. The squares had two lines that were resembling eyebrows, two dots that were resembilng eyes and a line that was resembling mouth, all inside a square.",1,[1898.798],[1898.798],,,,,
,,,,,552569,m,y,r,n,11,0,2025-04-03_11h34.04.162,VisualSearchFaces,2024.2.4,Win32,59.95203837,,,,,,,,,,,,,,,,,,,,,,,,,,,,,,,,,,,,,1898.806,1901.187,space,2.341,
