Welcome.started,Welcome.stopped,keyboard_space_welcome.keys,keyboard_space_welcome.rt,keyboard_space_welcome.duration,participant,gender,(corrected) normal vision,handedness,exp vse,session,skip_intro,date,expName,psychopyVersion,OS,frameRate,stimulus_exposure.started,stimulus_exposure.stopped,Block_intro.started,Block_intro.stopped,keyboard_space.keys,keyboard_space.rt,keyboard_space.duration,Stimulus.started,Stimulus.stopped,fixation_ending.started,fixation_ending.stopped,block_id,keyboard_response.keys,keyboard_response.corr,trials.thisRepN,trials.thisTrialN,trials.thisN,trials.thisIndex,trials.ran,target_presence,target_position,background_emotion,target_emotion,keyboard_response.rt,keyboard_response.duration,Block_outro.started,Block_outro.stopped,keyboard_space_end.keys,keyboard_space_end.rt,keyboard_space_end.duration,Question_about_stimulus.started,Question_about_stimulus.stopped,textbox_response.text,button.numClicks,button.timesOn,button.timesOff,Thanks.started,Thanks.stopped,keyboard_space_goodbye.keys,keyboard_space_goodbye.rt,keyboard_space_goodbye.duration
0.0002,32.8554,space,32.8416,,554903,f,y,r,n,11,0,2025-04-03_18h50.40.517,VisualSearchFaces,2024.2.4,MacIntel,116.2790698,,,,,,,,,,,,,,,,,,,,,,,,,,,,,,,,,,,,,,,,,
,,,,,554903,f,y,r,n,11,0,2025-04-03_18h50.40.517,VisualSearchFaces,2024.2.4,MacIntel,116.2790698,53.924,56.9304,56.9373,84.8478,space,27.8996,,85.8495,86.1057,86.1059,88.1048,practice1,,0,0,0,0,37,1,0,top_right,threatening,no_target,,,,,,,,,,,,,,,,,,
,,,,,554903,f,y,r,n,11,0,2025-04-03_18h50.40.517,VisualSearchFaces,2024.2.4,MacIntel,116.2790698,,,,,,,,89.1077,89.3638,89.3639,91.3638,practice1,,0,0,1,1,11,1,1,top_left,friendly,neutral,,,,,,,,,,,,,,,,,,
,,,,,554903,f,y,r,n,11,0,2025-04-03_18h50.40.517,VisualSearchFaces,2024.2.4,MacIntel,116.2790698,,,,,,,,92.3652,92.6221,92.6223,94.6219,practice1,,0,0,2,2,26,1,0,top_left,neutral,no_target,,,,,,,,,,,,,,,,,,
,,,,,554903,f,y,r,n,11,0,2025-04-03_18h50.40.517,VisualSearchFaces,2024.2.4,MacIntel,116.2790698,,,,,,,,95.6237,95.8802,95.8803,97.88,practice1,f,1,0,3,3,32,1,0,top_right,friendly,no_target,0.9011,,,,,,,,,,,,,,,,,
,,,,,554903,f,y,r,n,11,0,2025-04-03_18h50.40.517,VisualSearchFaces,2024.2.4,MacIntel,116.2790698,,,,,,,,98.8812,99.1305,99.1307,101.1304,practice1,,0,0,4,4,30,1,0,centre,friendly,no_target,,,,,,,,,,,,,,,,,,
,,,,,554903,f,y,r,n,11,0,2025-04-03_18h50.40.517,VisualSearchFaces,2024.2.4,MacIntel,116.2790698,,,,,,,,102.1309,102.3802,102.3803,104.3804,practice1,f,1,0,5,5,24,1,0,bottom_right,neutral,no_target,0.7349,,,,,,,,,,,,,,,,,
,,,,,554903,f,y,r,n,11,0,2025-04-03_18h50.40.517,VisualSearchFaces,2024.2.4,MacIntel,116.2790698,,,,,,,,105.3816,105.6303,105.6304,107.6303,practice1,j,1,0,6,6,17,1,1,top_right,threatening,neutral,0.4518,,,,,,,,,,,,,,,,,
,,,,,554903,f,y,r,n,11,0,2025-04-03_18h50.40.517,VisualSearchFaces,2024.2.4,MacIntel,116.2790698,,,,,,,,108.6318,108.8885,108.8886,110.8887,practice1,f,1,0,7,7,23,1,0,bottom_left,neutral,no_target,1.1495,,,,,,,,,,,,,,,,,
,,,,,554903,f,y,r,n,11,0,2025-04-03_18h50.40.517,VisualSearchFaces,2024.2.4,MacIntel,116.2790698,,,,,,,,111.8899,112.1469,112.1471,114.1469,practice1,j,1,0,8,8,14,1,1,bottom_right,friendly,neutral,0.758,,,,,,,,,,,,,,,,,
,,,,,554903,f,y,r,n,11,0,2025-04-03_18h50.40.517,VisualSearchFaces,2024.2.4,MacIntel,116.2790698,,,,,,,,115.1483,115.4053,115.4053,117.4053,practice1,f,1,0,9,9,31,1,0,top_left,friendly,no_target,0.9262,,,,,,,,,,,,,,,,,
,,,,,554903,f,y,r,n,11,0,2025-04-03_18h50.40.517,VisualSearchFaces,2024.2.4,MacIntel,116.2790698,,,,,,,,118.4071,118.6635,118.6635,120.6635,practice1,j,1,0,10,10,18,1,1,bottom_left,threatening,neutral,0.7197,,,,,,,,,,,,,,,,,
,,,,,554903,f,y,r,n,11,0,2025-04-03_18h50.40.517,VisualSearchFaces,2024.2.4,MacIntel,116.2790698,,,,,,,,121.6654,121.922,121.922,123.9207,practice1,j,1,0,11,11,8,1,1,bottom_left,neutral,threatening,0.5345,,,,,,,,,,,,,,,,,
,,,,,554903,f,y,r,n,11,0,2025-04-03_18h50.40.517,VisualSearchFaces,2024.2.4,MacIntel,116.2790698,,,,,,,,124.9235,125.1801,125.1801,127.1792,practice1,j,0,0,12,12,21,1,0,top_left,neutral,no_target,0.6702,,,,,,,,,,,,,,,,,
,,,,,554903,f,y,r,n,11,0,2025-04-03_18h50.40.517,VisualSearchFaces,2024.2.4,MacIntel,116.2790698,,,,,,,,128.1819,128.4376,128.4377,130.4385,practice1,j,0,0,13,13,35,1,0,centre,threatening,no_target,0.7188,,,,,,,,,,,,,,,,,
,,,,,554903,f,y,r,n,11,0,2025-04-03_18h50.40.517,VisualSearchFaces,2024.2.4,MacIntel,116.2790698,,,,,,,,131.4398,131.6968,131.6969,133.6966,practice1,f,1,0,14,14,36,1,0,top_left,threatening,no_target,1.2333,,,,,,,,,,,,,,,,,
,,,,,554903,f,y,r,n,11,0,2025-04-03_18h50.40.517,VisualSearchFaces,2024.2.4,MacIntel,116.2790698,,,,,,,,134.698,134.9552,134.9552,136.9551,practice1,f,1,0,15,15,39,1,0,bottom_right,threatening,no_target,0.8427,,,,,,,,,,,,,,,,,
,,,,,554903,f,y,r,n,11,0,2025-04-03_18h50.40.517,VisualSearchFaces,2024.2.4,MacIntel,116.2790698,,,,,,,,137.9575,138.2128,138.2129,140.2135,practice1,f,1,0,16,16,20,1,0,centre,neutral,no_target,0.8203,,,,,,,,,,,,,,,,,
,,,,,554903,f,y,r,n,11,0,2025-04-03_18h50.40.517,VisualSearchFaces,2024.2.4,MacIntel,116.2790698,,,,,,,,141.2148,141.4718,141.4718,143.471,practice1,j,0,0,17,17,22,1,0,top_right,neutral,no_target,0.4582,,,,,,,,,,,,,,,,,
,,,,,554903,f,y,r,n,11,0,2025-04-03_18h50.40.517,VisualSearchFaces,2024.2.4,MacIntel,116.2790698,,,,,,,,144.473,144.7301,144.7303,146.7301,practice1,j,1,0,18,18,10,1,1,centre,friendly,neutral,1.4006,,,,,,,,,,,,,,,,,
,,,,,554903,f,y,r,n,11,0,2025-04-03_18h50.40.517,VisualSearchFaces,2024.2.4,MacIntel,116.2790698,,,,,,,,147.7306,147.9802,147.9803,149.98,practice1,f,1,0,19,19,27,1,0,top_right,neutral,no_target,0.8573,,,,,,,,,,,,,,,,,
,,,,,554903,f,y,r,n,11,0,2025-04-03_18h50.40.517,VisualSearchFaces,2024.2.4,MacIntel,116.2790698,,,,,,,,150.9814,151.2384,151.2386,153.2383,practice1,j,1,0,20,20,13,1,1,bottom_left,friendly,neutral,1.4754,,,,,,,,,,,,,,,,,
,,,,,554903,f,y,r,n,11,0,2025-04-03_18h50.40.517,VisualSearchFaces,2024.2.4,MacIntel,116.2790698,,,,,,,,154.2389,154.4879,154.4879,156.4874,practice1,j,1,0,21,21,16,1,1,top_left,threatening,neutral,0.6266,,,,,,,,,,,,,,,,,
,,,,,554903,f,y,r,n,11,0,2025-04-03_18h50.40.517,VisualSearchFaces,2024.2.4,MacIntel,116.2790698,,,,,,,,157.4893,157.7383,157.7385,159.7383,practice1,j,1,0,22,22,0,1,1,centre,neutral,friendly,0.5065,,,,,,,,,,,,,,,,,
,,,,,554903,f,y,r,n,11,0,2025-04-03_18h50.40.517,VisualSearchFaces,2024.2.4,MacIntel,116.2790698,,,,,,,,160.7404,160.9967,160.9968,162.9968,practice1,j,1,0,23,23,1,1,1,top_left,neutral,friendly,0.4844,,,,,,,,,,,,,,,,,
,,,,,554903,f,y,r,n,11,0,2025-04-03_18h50.40.517,VisualSearchFaces,2024.2.4,MacIntel,116.2790698,,,,,,,,163.9979,164.2551,164.2552,166.2553,practice1,,0,0,24,24,15,1,1,centre,threatening,neutral,,,,,,,,,,,,,,,,,,
,,,,,554903,f,y,r,n,11,0,2025-04-03_18h50.40.517,VisualSearchFaces,2024.2.4,MacIntel,116.2790698,,,,,,,,167.2566,167.5135,167.5135,169.5132,practice1,j,1,0,25,25,7,1,1,top_right,neutral,threatening,0.4513,,,,,,,,,,,,,,,,,
,,,,,554903,f,y,r,n,11,0,2025-04-03_18h50.40.517,VisualSearchFaces,2024.2.4,MacIntel,116.2790698,,,,,,,,170.5145,170.7716,170.7717,172.7718,practice1,j,1,0,26,26,2,1,1,top_right,neutral,friendly,0.3676,,,,,,,,,,,,,,,,,
,,,,,554903,f,y,r,n,11,0,2025-04-03_18h50.40.517,VisualSearchFaces,2024.2.4,MacIntel,116.2790698,,,,,,,,173.7729,174.0301,174.0302,176.03,practice1,j,1,0,27,27,5,1,1,centre,neutral,threatening,0.4241,,,,,,,,,,,,,,,,,
,,,,,554903,f,y,r,n,11,0,2025-04-03_18h50.40.517,VisualSearchFaces,2024.2.4,MacIntel,116.2790698,,,,,,,,177.0315,177.2875,177.2875,179.2882,practice1,f,1,0,28,28,38,1,0,bottom_left,threatening,no_target,0.7457,,,,,,,,,,,,,,,,,
,,,,,554903,f,y,r,n,11,0,2025-04-03_18h50.40.517,VisualSearchFaces,2024.2.4,MacIntel,116.2790698,,,,,,,,180.2909,180.5458,180.5458,182.5467,practice1,j,1,0,29,29,12,1,1,top_right,friendly,neutral,0.6506,,,,,,,,,,,,,,,,,
,,,,,554903,f,y,r,n,11,0,2025-04-03_18h50.40.517,VisualSearchFaces,2024.2.4,MacIntel,116.2790698,,,,,,,,183.5489,183.8045,183.8045,185.8039,practice1,j,1,0,30,30,9,1,1,bottom_right,neutral,threatening,0.4164,,,,,,,,,,,,,,,,,
,,,,,554903,f,y,r,n,11,0,2025-04-03_18h50.40.517,VisualSearchFaces,2024.2.4,MacIntel,116.2790698,,,,,,,,186.8058,187.0632,187.0633,189.0623,practice1,f,1,0,31,31,33,1,0,bottom_left,friendly,no_target,0.6834,,,,,,,,,,,,,,,,,
,,,,,554903,f,y,r,n,11,0,2025-04-03_18h50.40.517,VisualSearchFaces,2024.2.4,MacIntel,116.2790698,,,,,,,,190.065,190.3216,190.3217,192.3214,practice1,j,1,0,32,32,4,1,1,bottom_right,neutral,friendly,0.4494,,,,,,,,,,,,,,,,,
,,,,,554903,f,y,r,n,11,0,2025-04-03_18h50.40.517,VisualSearchFaces,2024.2.4,MacIntel,116.2790698,,,,,,,,193.3228,193.5791,193.5792,195.5788,practice1,f,1,0,33,33,25,1,0,centre,neutral,no_target,1.3585,,,,,,,,,,,,,,,,,
,,,,,554903,f,y,r,n,11,0,2025-04-03_18h50.40.517,VisualSearchFaces,2024.2.4,MacIntel,116.2790698,,,,,,,,196.5813,196.8381,196.8383,198.8381,practice1,j,0,0,34,34,28,1,0,bottom_left,neutral,no_target,1.1171,,,,,,,,,,,,,,,,,
,,,,,554903,f,y,r,n,11,0,2025-04-03_18h50.40.517,VisualSearchFaces,2024.2.4,MacIntel,116.2790698,,,,,,,,199.8399,200.0885,200.0885,202.0881,practice1,f,1,0,35,35,34,1,0,bottom_right,friendly,no_target,0.548,,,,,,,,,,,,,,,,,
,,,,,554903,f,y,r,n,11,0,2025-04-03_18h50.40.517,VisualSearchFaces,2024.2.4,MacIntel,116.2790698,,,,,,,,203.0886,203.3382,203.3382,205.3381,practice1,j,1,0,36,36,19,1,1,bottom_right,threatening,neutral,0.8079,,,,,,,,,,,,,,,,,
,,,,,554903,f,y,r,n,11,0,2025-04-03_18h50.40.517,VisualSearchFaces,2024.2.4,MacIntel,116.2790698,,,,,,,,206.3406,206.5966,206.5967,208.5955,practice1,j,1,0,37,37,6,1,1,top_left,neutral,threatening,0.4603,,,,,,,,,,,,,,,,,
,,,,,554903,f,y,r,n,11,0,2025-04-03_18h50.40.517,VisualSearchFaces,2024.2.4,MacIntel,116.2790698,,,,,,,,209.5977,209.8539,209.854,211.8506,practice1,j,1,0,38,38,3,1,1,bottom_left,neutral,friendly,0.4473,,,,,,,,,,,,,,,,,
,,,,,554903,f,y,r,n,11,0,2025-04-03_18h50.40.517,VisualSearchFaces,2024.2.4,MacIntel,116.2790698,,,,,,,,212.8521,213.1082,213.1084,215.1089,practice1,j,0,0,39,39,29,1,0,bottom_right,neutral,no_target,0.7776,,,,,,,,,,,,,,,,,
,,,,,554903,f,y,r,n,11,0,2025-04-03_18h50.40.517,VisualSearchFaces,2024.2.4,MacIntel,116.2790698,,,222.754,245.3583,space,22.5922,,246.3603,246.4672,246.4672,248.4672,practice2,j,1,0,0,0,11,1,1,top_left,friendly,neutral,0.9083,,215.1099,222.751,space,7.629,,,,,,,,,,,,
,,,,,554903,f,y,r,n,11,0,2025-04-03_18h50.40.517,VisualSearchFaces,2024.2.4,MacIntel,116.2790698,,,,,,,,249.469,249.5744,249.5744,251.5753,practice2,j,0,0,1,1,39,1,0,bottom_right,threatening,no_target,0.9185,,,,,,,,,,,,,,,,,
,,,,,554903,f,y,r,n,11,0,2025-04-03_18h50.40.517,VisualSearchFaces,2024.2.4,MacIntel,116.2790698,,,,,,,,252.5768,252.6836,252.6837,254.6838,practice2,f,1,0,2,2,37,1,0,top_right,threatening,no_target,0.742,,,,,,,,,,,,,,,,,
,,,,,554903,f,y,r,n,11,0,2025-04-03_18h50.40.517,VisualSearchFaces,2024.2.4,MacIntel,116.2790698,,,,,,,,255.685,255.792,255.792,257.787,practice2,j,1,0,3,3,6,1,1,top_left,neutral,threatening,0.5824,,,,,,,,,,,,,,,,,
,,,,,554903,f,y,r,n,11,0,2025-04-03_18h50.40.517,VisualSearchFaces,2024.2.4,MacIntel,116.2790698,,,,,,,,258.7894,258.8963,258.8963,260.8953,practice2,f,1,0,4,4,29,1,0,bottom_right,neutral,no_target,0.8256,,,,,,,,,,,,,,,,,
,,,,,554903,f,y,r,n,11,0,2025-04-03_18h50.40.517,VisualSearchFaces,2024.2.4,MacIntel,116.2790698,,,,,,,,261.8977,262.0046,262.0047,264.0045,practice2,j,1,0,5,5,14,1,1,bottom_right,friendly,neutral,1.3523,,,,,,,,,,,,,,,,,
,,,,,554903,f,y,r,n,11,0,2025-04-03_18h50.40.517,VisualSearchFaces,2024.2.4,MacIntel,116.2790698,,,,,,,,265.0054,265.1045,265.1047,267.1045,practice2,f,1,0,6,6,36,1,0,top_left,threatening,no_target,0.5875,,,,,,,,,,,,,,,,,
,,,,,554903,f,y,r,n,11,0,2025-04-03_18h50.40.517,VisualSearchFaces,2024.2.4,MacIntel,116.2790698,,,,,,,,268.1059,268.2047,268.2048,270.2044,practice2,j,1,0,7,7,15,1,1,centre,threatening,neutral,0.6613,,,,,,,,,,,,,,,,,
,,,,,554903,f,y,r,n,11,0,2025-04-03_18h50.40.517,VisualSearchFaces,2024.2.4,MacIntel,116.2790698,,,,,,,,271.206,271.3129,271.313,273.3118,practice2,f,1,0,8,8,21,1,0,top_left,neutral,no_target,1.3162,,,,,,,,,,,,,,,,,
,,,,,554903,f,y,r,n,11,0,2025-04-03_18h50.40.517,VisualSearchFaces,2024.2.4,MacIntel,116.2790698,,,,,,,,274.3141,274.4212,274.4212,276.4204,practice2,f,1,0,9,9,22,1,0,top_right,neutral,no_target,0.5551,,,,,,,,,,,,,,,,,
,,,,,554903,f,y,r,n,11,0,2025-04-03_18h50.40.517,VisualSearchFaces,2024.2.4,MacIntel,116.2790698,,,,,,,,277.4223,277.5293,277.5294,279.5295,practice2,j,0,0,10,10,25,1,0,centre,neutral,no_target,1.0346,,,,,,,,,,,,,,,,,
,,,,,554903,f,y,r,n,11,0,2025-04-03_18h50.40.517,VisualSearchFaces,2024.2.4,MacIntel,116.2790698,,,,,,,,280.5309,280.6368,280.637,282.638,practice2,j,1,0,11,11,5,1,1,centre,neutral,threatening,0.5056,,,,,,,,,,,,,,,,,
,,,,,554903,f,y,r,n,11,0,2025-04-03_18h50.40.517,VisualSearchFaces,2024.2.4,MacIntel,116.2790698,,,,,,,,283.6383,283.7457,283.7457,285.7452,practice2,j,1,0,12,12,12,1,1,top_right,friendly,neutral,0.96,,,,,,,,,,,,,,,,,
,,,,,554903,f,y,r,n,11,0,2025-04-03_18h50.40.517,VisualSearchFaces,2024.2.4,MacIntel,116.2790698,,,,,,,,286.7466,286.8461,286.8461,288.8461,practice2,f,1,0,13,13,35,1,0,centre,threatening,no_target,1.5508,,,,,,,,,,,,,,,,,
,,,,,554903,f,y,r,n,11,0,2025-04-03_18h50.40.517,VisualSearchFaces,2024.2.4,MacIntel,116.2790698,,,,,,,,289.8478,289.9544,289.9545,291.9534,practice2,f,1,0,14,14,26,1,0,top_left,neutral,no_target,0.5504,,,,,,,,,,,,,,,,,
,,,,,554903,f,y,r,n,11,0,2025-04-03_18h50.40.517,VisualSearchFaces,2024.2.4,MacIntel,116.2790698,,,,,,,,292.9559,293.0628,293.0629,295.0627,practice2,f,0,0,15,15,10,1,1,centre,friendly,neutral,1.6045,,,,,,,,,,,,,,,,,
,,,,,554903,f,y,r,n,11,0,2025-04-03_18h50.40.517,VisualSearchFaces,2024.2.4,MacIntel,116.2790698,,,,,,,,296.0639,296.1626,296.1627,298.1618,practice2,j,1,0,16,16,17,1,1,top_right,threatening,neutral,1.0536,,,,,,,,,,,,,,,,,
,,,,,554903,f,y,r,n,11,0,2025-04-03_18h50.40.517,VisualSearchFaces,2024.2.4,MacIntel,116.2790698,,,,,,,,299.1647,299.2701,299.2701,301.2709,practice2,,0,0,17,17,20,1,0,centre,neutral,no_target,,,,,,,,,,,,,,,,,,
,,,,,554903,f,y,r,n,11,0,2025-04-03_18h50.40.517,VisualSearchFaces,2024.2.4,MacIntel,116.2790698,,,,,,,,302.2725,302.371,302.3711,304.3702,practice2,j,1,0,18,18,2,1,1,top_right,neutral,friendly,1.1926,,,,,,,,,,,,,,,,,
,,,,,554903,f,y,r,n,11,0,2025-04-03_18h50.40.517,VisualSearchFaces,2024.2.4,MacIntel,116.2790698,,,,,,,,305.3731,305.4793,305.4793,307.4792,practice2,f,1,0,19,19,27,1,0,top_right,neutral,no_target,1.9006,,,,,,,,,,,,,,,,,
,,,,,554903,f,y,r,n,11,0,2025-04-03_18h50.40.517,VisualSearchFaces,2024.2.4,MacIntel,116.2790698,,,,,,,,308.4798,308.5867,308.5868,310.5875,practice2,j,1,0,20,20,4,1,1,bottom_right,neutral,friendly,0.8019,,,,,,,,,,,,,,,,,
,,,,,554903,f,y,r,n,11,0,2025-04-03_18h50.40.517,VisualSearchFaces,2024.2.4,MacIntel,116.2790698,,,,,,,,311.5887,311.6954,311.6954,313.695,practice2,f,1,0,21,21,28,1,0,bottom_left,neutral,no_target,1.3926,,,,,,,,,,,,,,,,,
,,,,,554903,f,y,r,n,11,0,2025-04-03_18h50.40.517,VisualSearchFaces,2024.2.4,MacIntel,116.2790698,,,,,,,,314.6971,314.8042,314.8043,316.8043,practice2,j,1,0,22,22,0,1,1,centre,neutral,friendly,1.1574,,,,,,,,,,,,,,,,,
,,,,,554903,f,y,r,n,11,0,2025-04-03_18h50.40.517,VisualSearchFaces,2024.2.4,MacIntel,116.2790698,,,,,,,,317.806,317.9117,317.9117,319.9124,practice2,j,1,0,23,23,1,1,1,top_left,neutral,friendly,0.4843,,,,,,,,,,,,,,,,,
,,,,,554903,f,y,r,n,11,0,2025-04-03_18h50.40.517,VisualSearchFaces,2024.2.4,MacIntel,116.2790698,,,,,,,,320.9149,321.0209,321.0209,323.0207,practice2,f,0,0,24,24,19,1,1,bottom_right,threatening,neutral,1.2686,,,,,,,,,,,,,,,,,
,,,,,554903,f,y,r,n,11,0,2025-04-03_18h50.40.517,VisualSearchFaces,2024.2.4,MacIntel,116.2790698,,,,,,,,324.021,324.1208,324.1209,326.1209,practice2,,0,0,25,25,34,1,0,bottom_right,friendly,no_target,,,,,,,,,,,,,,,,,,
,,,,,554903,f,y,r,n,11,0,2025-04-03_18h50.40.517,VisualSearchFaces,2024.2.4,MacIntel,116.2790698,,,,,,,,327.1221,327.2209,327.221,329.221,practice2,j,1,0,26,26,16,1,1,top_left,threatening,neutral,0.6754,,,,,,,,,,,,,,,,,
,,,,,554903,f,y,r,n,11,0,2025-04-03_18h50.40.517,VisualSearchFaces,2024.2.4,MacIntel,116.2790698,,,,,,,,330.2217,330.3209,330.3209,332.321,practice2,j,1,0,27,27,8,1,1,bottom_left,neutral,threatening,0.6617,,,,,,,,,,,,,,,,,
,,,,,554903,f,y,r,n,11,0,2025-04-03_18h50.40.517,VisualSearchFaces,2024.2.4,MacIntel,116.2790698,,,,,,,,333.3222,333.4291,333.4292,335.4291,practice2,j,1,0,28,28,13,1,1,bottom_left,friendly,neutral,1.4344,,,,,,,,,,,,,,,,,
,,,,,554903,f,y,r,n,11,0,2025-04-03_18h50.40.517,VisualSearchFaces,2024.2.4,MacIntel,116.2790698,,,,,,,,336.4316,336.5377,336.5378,338.5366,practice2,j,1,0,29,29,3,1,1,bottom_left,neutral,friendly,0.6819,,,,,,,,,,,,,,,,,
,,,,,554903,f,y,r,n,11,0,2025-04-03_18h50.40.517,VisualSearchFaces,2024.2.4,MacIntel,116.2790698,,,,,,,,339.5388,339.645,339.645,341.6457,practice2,j,0,0,30,30,38,1,0,bottom_left,threatening,no_target,1.7053,,,,,,,,,,,,,,,,,
,,,,,554903,f,y,r,n,11,0,2025-04-03_18h50.40.517,VisualSearchFaces,2024.2.4,MacIntel,116.2790698,,,,,,,,342.6473,342.7542,342.7542,344.7541,practice2,j,1,0,31,31,7,1,1,top_right,neutral,threatening,0.6998,,,,,,,,,,,,,,,,,
,,,,,554903,f,y,r,n,11,0,2025-04-03_18h50.40.517,VisualSearchFaces,2024.2.4,MacIntel,116.2790698,,,,,,,,345.755,345.8625,345.8627,347.8622,practice2,j,1,0,32,32,9,1,1,bottom_right,neutral,threatening,0.582,,,,,,,,,,,,,,,,,
,,,,,554903,f,y,r,n,11,0,2025-04-03_18h50.40.517,VisualSearchFaces,2024.2.4,MacIntel,116.2790698,,,,,,,,348.8647,348.9707,348.9709,350.9701,practice2,f,1,0,33,33,31,1,0,top_left,friendly,no_target,0.9661,,,,,,,,,,,,,,,,,
,,,,,554903,f,y,r,n,11,0,2025-04-03_18h50.40.517,VisualSearchFaces,2024.2.4,MacIntel,116.2790698,,,,,,,,351.9728,352.0709,352.071,354.0706,practice2,f,1,0,34,34,30,1,0,centre,friendly,no_target,0.7975,,,,,,,,,,,,,,,,,
,,,,,554903,f,y,r,n,11,0,2025-04-03_18h50.40.517,VisualSearchFaces,2024.2.4,MacIntel,116.2790698,,,,,,,,355.0728,355.1789,355.1789,357.179,practice2,j,0,0,35,35,24,1,0,bottom_right,neutral,no_target,0.6667,,,,,,,,,,,,,,,,,
,,,,,554903,f,y,r,n,11,0,2025-04-03_18h50.40.517,VisualSearchFaces,2024.2.4,MacIntel,116.2790698,,,,,,,,358.1805,358.2876,358.2878,360.2874,practice2,j,1,0,36,36,18,1,1,bottom_left,threatening,neutral,1.2907,,,,,,,,,,,,,,,,,
,,,,,554903,f,y,r,n,11,0,2025-04-03_18h50.40.517,VisualSearchFaces,2024.2.4,MacIntel,116.2790698,,,,,,,,361.2896,361.3958,361.3959,363.3957,practice2,f,1,0,37,37,32,1,0,top_right,friendly,no_target,1.1008,,,,,,,,,,,,,,,,,
,,,,,554903,f,y,r,n,11,0,2025-04-03_18h50.40.517,VisualSearchFaces,2024.2.4,MacIntel,116.2790698,,,,,,,,364.3972,364.5041,364.5041,366.5042,practice2,f,1,0,38,38,33,1,0,bottom_left,friendly,no_target,0.6833,,,,,,,,,,,,,,,,,
,,,,,554903,f,y,r,n,11,0,2025-04-03_18h50.40.517,VisualSearchFaces,2024.2.4,MacIntel,116.2790698,,,,,,,,367.506,367.6122,367.6122,369.6113,practice2,j,0,0,39,39,23,1,0,bottom_left,neutral,no_target,1.7001,,,,,,,,,,,,,,,,,
,,,,,554903,f,y,r,n,11,0,2025-04-03_18h50.40.517,VisualSearchFaces,2024.2.4,MacIntel,116.2790698,,,381.2156,392.1954,space,10.9672,,393.197,393.3039,393.304,395.3032,block1,f,1,0,0,0,28,1,0,bottom_left,neutral,no_target,1.1421,,369.6133,381.2123,space,11.5837,,,,,,,,,,,,
,,,,,554903,f,y,r,n,11,0,2025-04-03_18h50.40.517,VisualSearchFaces,2024.2.4,MacIntel,116.2790698,,,,,,,,396.305,396.4117,396.4119,398.4122,block1,f,0,0,1,1,10,1,1,centre,friendly,neutral,1.175,,,,,,,,,,,,,,,,,
,,,,,554903,f,y,r,n,11,0,2025-04-03_18h50.40.517,VisualSearchFaces,2024.2.4,MacIntel,116.2790698,,,,,,,,399.4128,399.5207,399.5207,401.5205,block1,j,1,0,2,2,5,1,1,centre,neutral,threatening,0.5028,,,,,,,,,,,,,,,,,
,,,,,554903,f,y,r,n,11,0,2025-04-03_18h50.40.517,VisualSearchFaces,2024.2.4,MacIntel,116.2790698,,,,,,,,402.5217,402.6289,402.629,404.6287,block1,f,1,0,3,3,31,1,0,top_left,friendly,no_target,1.0071,,,,,,,,,,,,,,,,,
,,,,,554903,f,y,r,n,11,0,2025-04-03_18h50.40.517,VisualSearchFaces,2024.2.4,MacIntel,116.2790698,,,,,,,,405.6309,405.7371,405.7372,407.7371,block1,j,1,0,4,4,14,1,1,bottom_right,friendly,neutral,0.4998,,,,,,,,,,,,,,,,,
,,,,,554903,f,y,r,n,11,0,2025-04-03_18h50.40.517,VisualSearchFaces,2024.2.4,MacIntel,116.2790698,,,,,,,,408.7383,408.8448,408.845,410.8445,block1,f,1,0,5,5,39,1,0,bottom_right,threatening,no_target,0.7672,,,,,,,,,,,,,,,,,
,,,,,554903,f,y,r,n,11,0,2025-04-03_18h50.40.517,VisualSearchFaces,2024.2.4,MacIntel,116.2790698,,,,,,,,411.8469,411.9539,411.954,413.9528,block1,j,1,0,6,6,7,1,1,top_right,neutral,threatening,0.3665,,,,,,,,,,,,,,,,,
,,,,,554903,f,y,r,n,11,0,2025-04-03_18h50.40.517,VisualSearchFaces,2024.2.4,MacIntel,116.2790698,,,,,,,,414.9546,415.0539,415.054,417.0529,block1,j,0,0,7,7,21,1,0,top_left,neutral,no_target,0.5907,,,,,,,,,,,,,,,,,
,,,,,554903,f,y,r,n,11,0,2025-04-03_18h50.40.517,VisualSearchFaces,2024.2.4,MacIntel,116.2790698,,,,,,,,418.0543,418.1536,418.1537,420.1527,block1,f,1,0,8,8,20,1,0,centre,neutral,no_target,0.6869,,,,,,,,,,,,,,,,,
,,,,,554903,f,y,r,n,11,0,2025-04-03_18h50.40.517,VisualSearchFaces,2024.2.4,MacIntel,116.2790698,,,,,,,,421.1551,421.2621,421.2621,423.2618,block1,j,0,0,9,9,36,1,0,top_left,threatening,no_target,1.332,,,,,,,,,,,,,,,,,
,,,,,554903,f,y,r,n,11,0,2025-04-03_18h50.40.517,VisualSearchFaces,2024.2.4,MacIntel,116.2790698,,,,,,,,424.2633,424.3704,424.3705,426.3694,block1,f,1,0,10,10,22,1,0,top_right,neutral,no_target,0.7508,,,,,,,,,,,,,,,,,
,,,,,554903,f,y,r,n,11,0,2025-04-03_18h50.40.517,VisualSearchFaces,2024.2.4,MacIntel,116.2790698,,,,,,,,427.371,427.4703,427.4704,429.4694,block1,j,1,0,11,11,11,1,1,top_left,friendly,neutral,0.5884,,,,,,,,,,,,,,,,,
,,,,,554903,f,y,r,n,11,0,2025-04-03_18h50.40.517,VisualSearchFaces,2024.2.4,MacIntel,116.2790698,,,,,,,,430.4716,430.5785,430.5785,432.5777,block1,j,1,0,12,12,0,1,1,centre,neutral,friendly,0.4587,,,,,,,,,,,,,,,,,
,,,,,554903,f,y,r,n,11,0,2025-04-03_18h50.40.517,VisualSearchFaces,2024.2.4,MacIntel,116.2790698,,,,,,,,433.5795,433.6871,433.6872,435.6866,block1,f,1,0,13,13,34,1,0,bottom_right,friendly,no_target,0.8493,,,,,,,,,,,,,,,,,
,,,,,554903,f,y,r,n,11,0,2025-04-03_18h50.40.517,VisualSearchFaces,2024.2.4,MacIntel,116.2790698,,,,,,,,436.6873,436.7869,436.7871,438.787,block1,j,1,0,14,14,3,1,1,bottom_left,neutral,friendly,1.8423,,,,,,,,,,,,,,,,,
,,,,,554903,f,y,r,n,11,0,2025-04-03_18h50.40.517,VisualSearchFaces,2024.2.4,MacIntel,116.2790698,,,,,,,,439.7877,439.8869,439.8869,441.8858,block1,j,1,0,15,15,8,1,1,bottom_left,neutral,threatening,0.6934,,,,,,,,,,,,,,,,,
,,,,,554903,f,y,r,n,11,0,2025-04-03_18h50.40.517,VisualSearchFaces,2024.2.4,MacIntel,116.2790698,,,,,,,,442.8885,442.9951,442.9952,444.9952,block1,j,1,0,16,16,16,1,1,top_left,threatening,neutral,0.6265,,,,,,,,,,,,,,,,,
,,,,,554903,f,y,r,n,11,0,2025-04-03_18h50.40.517,VisualSearchFaces,2024.2.4,MacIntel,116.2790698,,,,,,,,445.9968,446.1038,446.1038,448.1035,block1,j,1,0,17,17,17,1,1,top_right,threatening,neutral,0.4518,,,,,,,,,,,,,,,,,
,,,,,554903,f,y,r,n,11,0,2025-04-03_18h50.40.517,VisualSearchFaces,2024.2.4,MacIntel,116.2790698,,,,,,,,449.1048,449.2108,449.2108,451.2117,block1,f,1,0,18,18,38,1,0,bottom_left,threatening,no_target,1.3517,,,,,,,,,,,,,,,,,
,,,,,554903,f,y,r,n,11,0,2025-04-03_18h50.40.517,VisualSearchFaces,2024.2.4,MacIntel,116.2790698,,,,,,,,452.2129,452.3204,452.3204,454.3203,block1,,0,0,19,19,32,1,0,top_right,friendly,no_target,,,,,,,,,,,,,,,,,,
,,,,,554903,f,y,r,n,11,0,2025-04-03_18h50.40.517,VisualSearchFaces,2024.2.4,MacIntel,116.2790698,,,,,,,,455.3216,455.4288,455.4289,457.4284,block1,j,1,0,20,20,9,1,1,bottom_right,neutral,threatening,1.0177,,,,,,,,,,,,,,,,,
,,,,,554903,f,y,r,n,11,0,2025-04-03_18h50.40.517,VisualSearchFaces,2024.2.4,MacIntel,116.2790698,,,,,,,,458.429,458.537,458.5371,460.5368,block1,j,1,0,21,21,1,1,1,top_left,neutral,friendly,0.4042,,,,,,,,,,,,,,,,,
,,,,,554903,f,y,r,n,11,0,2025-04-03_18h50.40.517,VisualSearchFaces,2024.2.4,MacIntel,116.2790698,,,,,,,,461.5383,461.6453,461.6453,463.6448,block1,j,1,0,22,22,18,1,1,bottom_left,threatening,neutral,0.35,,,,,,,,,,,,,,,,,
,,,,,554903,f,y,r,n,11,0,2025-04-03_18h50.40.517,VisualSearchFaces,2024.2.4,MacIntel,116.2790698,,,,,,,,464.6467,464.7451,464.7453,466.7442,block1,j,1,0,23,23,13,1,1,bottom_left,friendly,neutral,0.8669,,,,,,,,,,,,,,,,,
,,,,,554903,f,y,r,n,11,0,2025-04-03_18h50.40.517,VisualSearchFaces,2024.2.4,MacIntel,116.2790698,,,,,,,,467.7473,467.8537,467.8537,469.8533,block1,f,1,0,24,24,33,1,0,bottom_left,friendly,no_target,0.8426,,,,,,,,,,,,,,,,,
,,,,,554903,f,y,r,n,11,0,2025-04-03_18h50.40.517,VisualSearchFaces,2024.2.4,MacIntel,116.2790698,,,,,,,,470.8544,470.9535,470.9536,472.9535,block1,j,1,0,25,25,12,1,1,top_right,friendly,neutral,0.8681,,,,,,,,,,,,,,,,,
,,,,,554903,f,y,r,n,11,0,2025-04-03_18h50.40.517,VisualSearchFaces,2024.2.4,MacIntel,116.2790698,,,,,,,,473.9551,474.0536,474.0538,476.0535,block1,f,1,0,26,26,35,1,0,centre,threatening,no_target,0.726,,,,,,,,,,,,,,,,,
,,,,,554903,f,y,r,n,11,0,2025-04-03_18h50.40.517,VisualSearchFaces,2024.2.4,MacIntel,116.2790698,,,,,,,,477.0546,477.1618,477.1619,479.1617,block1,f,1,0,27,27,26,1,0,top_left,neutral,no_target,0.641,,,,,,,,,,,,,,,,,
,,,,,554903,f,y,r,n,11,0,2025-04-03_18h50.40.517,VisualSearchFaces,2024.2.4,MacIntel,116.2790698,,,,,,,,480.1633,480.2692,480.2692,482.2691,block1,f,1,0,28,28,29,1,0,bottom_right,neutral,no_target,0.5544,,,,,,,,,,,,,,,,,
,,,,,554903,f,y,r,n,11,0,2025-04-03_18h50.40.517,VisualSearchFaces,2024.2.4,MacIntel,116.2790698,,,,,,,,483.2713,483.3785,483.3787,485.3783,block1,f,1,0,29,29,30,1,0,centre,friendly,no_target,0.6652,,,,,,,,,,,,,,,,,
,,,,,554903,f,y,r,n,11,0,2025-04-03_18h50.40.517,VisualSearchFaces,2024.2.4,MacIntel,116.2790698,,,,,,,,486.38,486.4867,486.4868,488.4868,block1,f,1,0,30,30,24,1,0,bottom_right,neutral,no_target,0.6069,,,,,,,,,,,,,,,,,
,,,,,554903,f,y,r,n,11,0,2025-04-03_18h50.40.517,VisualSearchFaces,2024.2.4,MacIntel,116.2790698,,,,,,,,489.4877,489.595,489.5951,491.5954,block1,j,1,0,31,31,19,1,1,bottom_right,threatening,neutral,1.4184,,,,,,,,,,,,,,,,,
,,,,,554903,f,y,r,n,11,0,2025-04-03_18h50.40.517,VisualSearchFaces,2024.2.4,MacIntel,116.2790698,,,,,,,,492.5974,492.7034,492.7034,494.7031,block1,f,0,0,32,32,15,1,1,centre,threatening,neutral,1.692,,,,,,,,,,,,,,,,,
,,,,,554903,f,y,r,n,11,0,2025-04-03_18h50.40.517,VisualSearchFaces,2024.2.4,MacIntel,116.2790698,,,,,,,,495.7058,495.8117,495.8119,497.8114,block1,f,1,0,33,33,27,1,0,top_right,neutral,no_target,0.8583,,,,,,,,,,,,,,,,,
,,,,,554903,f,y,r,n,11,0,2025-04-03_18h50.40.517,VisualSearchFaces,2024.2.4,MacIntel,116.2790698,,,,,,,,498.8141,498.92,498.9201,500.9201,block1,j,1,0,34,34,6,1,1,top_left,neutral,threatening,0.4997,,,,,,,,,,,,,,,,,
,,,,,554903,f,y,r,n,11,0,2025-04-03_18h50.40.517,VisualSearchFaces,2024.2.4,MacIntel,116.2790698,,,,,,,,501.9208,502.0201,502.0201,504.02,block1,j,1,0,35,35,2,1,1,top_right,neutral,friendly,0.4828,,,,,,,,,,,,,,,,,
,,,,,554903,f,y,r,n,11,0,2025-04-03_18h50.40.517,VisualSearchFaces,2024.2.4,MacIntel,116.2790698,,,,,,,,505.0205,505.12,505.1201,507.1199,block1,f,1,0,36,36,23,1,0,bottom_left,neutral,no_target,0.6179,,,,,,,,,,,,,,,,,
,,,,,554903,f,y,r,n,11,0,2025-04-03_18h50.40.517,VisualSearchFaces,2024.2.4,MacIntel,116.2790698,,,,,,,,508.1212,508.2282,508.2283,510.2281,block1,j,0,0,37,37,37,1,0,top_right,threatening,no_target,1.3507,,,,,,,,,,,,,,,,,
,,,,,554903,f,y,r,n,11,0,2025-04-03_18h50.40.517,VisualSearchFaces,2024.2.4,MacIntel,116.2790698,,,,,,,,511.2295,511.3365,511.3365,513.3357,block1,,0,0,38,38,4,1,1,bottom_right,neutral,friendly,,,,,,,,,,,,,,,,,,
,,,,,554903,f,y,r,n,11,0,2025-04-03_18h50.40.517,VisualSearchFaces,2024.2.4,MacIntel,116.2790698,,,,,,,,514.3378,514.4365,514.4365,516.4366,block1,,0,0,39,39,25,1,0,centre,neutral,no_target,,,,,,,,,,,,,,,,,,
,,,,,554903,f,y,r,n,11,0,2025-04-03_18h50.40.517,VisualSearchFaces,2024.2.4,MacIntel,116.2790698,,,,,,,,517.4378,517.5449,517.545,519.5444,block1,f,1,1,0,40,34,1,0,bottom_right,friendly,no_target,1.45,,,,,,,,,,,,,,,,,
,,,,,554903,f,y,r,n,11,0,2025-04-03_18h50.40.517,VisualSearchFaces,2024.2.4,MacIntel,116.2790698,,,,,,,,520.5461,520.6534,520.6534,522.6533,block1,j,1,1,1,41,0,1,1,centre,neutral,friendly,0.6586,,,,,,,,,,,,,,,,,
,,,,,554903,f,y,r,n,11,0,2025-04-03_18h50.40.517,VisualSearchFaces,2024.2.4,MacIntel,116.2790698,,,,,,,,523.6537,523.7612,523.7612,525.7616,block1,j,1,1,2,42,18,1,1,bottom_left,threatening,neutral,1.7439,,,,,,,,,,,,,,,,,
,,,,,554903,f,y,r,n,11,0,2025-04-03_18h50.40.517,VisualSearchFaces,2024.2.4,MacIntel,116.2790698,,,,,,,,526.7629,526.8698,526.8699,528.8699,block1,j,1,1,3,43,8,1,1,bottom_left,neutral,threatening,0.6116,,,,,,,,,,,,,,,,,
,,,,,554903,f,y,r,n,11,0,2025-04-03_18h50.40.517,VisualSearchFaces,2024.2.4,MacIntel,116.2790698,,,,,,,,529.8711,529.9782,529.9784,531.978,block1,f,1,1,4,44,38,1,0,bottom_left,threatening,no_target,1.2259,,,,,,,,,,,,,,,,,
,,,,,554903,f,y,r,n,11,0,2025-04-03_18h50.40.517,VisualSearchFaces,2024.2.4,MacIntel,116.2790698,,,,,,,,532.9805,533.0866,533.0866,535.0863,block1,f,1,1,5,45,22,1,0,top_right,neutral,no_target,1.6808,,,,,,,,,,,,,,,,,
,,,,,554903,f,y,r,n,11,0,2025-04-03_18h50.40.517,VisualSearchFaces,2024.2.4,MacIntel,116.2790698,,,,,,,,536.0871,536.1867,536.1868,538.1865,block1,j,1,1,6,46,3,1,1,bottom_left,neutral,friendly,0.4253,,,,,,,,,,,,,,,,,
,,,,,554903,f,y,r,n,11,0,2025-04-03_18h50.40.517,VisualSearchFaces,2024.2.4,MacIntel,116.2790698,,,,,,,,539.1876,539.2865,539.2865,541.2854,block1,j,1,1,7,47,12,1,1,top_right,friendly,neutral,0.7826,,,,,,,,,,,,,,,,,
,,,,,554903,f,y,r,n,11,0,2025-04-03_18h50.40.517,VisualSearchFaces,2024.2.4,MacIntel,116.2790698,,,,,,,,542.2868,542.3866,542.3867,544.3859,block1,,0,1,8,48,37,1,0,top_right,threatening,no_target,,,,,,,,,,,,,,,,,,
,,,,,554903,f,y,r,n,11,0,2025-04-03_18h50.40.517,VisualSearchFaces,2024.2.4,MacIntel,116.2790698,,,,,,,,545.3878,545.4949,545.4949,547.4938,block1,f,1,1,9,49,20,1,0,centre,neutral,no_target,1.4757,,,,,,,,,,,,,,,,,
,,,,,554903,f,y,r,n,11,0,2025-04-03_18h50.40.517,VisualSearchFaces,2024.2.4,MacIntel,116.2790698,,,,,,,,548.4962,548.6021,548.6022,550.6031,block1,j,1,1,10,50,14,1,1,bottom_right,friendly,neutral,1.0683,,,,,,,,,,,,,,,,,
,,,,,554903,f,y,r,n,11,0,2025-04-03_18h50.40.517,VisualSearchFaces,2024.2.4,MacIntel,116.2790698,,,,,,,,551.604,551.7031,551.7032,553.7031,block1,f,1,1,11,51,31,1,0,top_left,friendly,no_target,0.8259,,,,,,,,,,,,,,,,,
,,,,,554903,f,y,r,n,11,0,2025-04-03_18h50.40.517,VisualSearchFaces,2024.2.4,MacIntel,116.2790698,,,,,,,,554.7041,554.8028,554.8028,556.8031,block1,f,1,1,12,52,23,1,0,bottom_left,neutral,no_target,1.2272,,,,,,,,,,,,,,,,,
,,,,,554903,f,y,r,n,11,0,2025-04-03_18h50.40.517,VisualSearchFaces,2024.2.4,MacIntel,116.2790698,,,,,,,,557.8045,557.9114,557.9115,559.9113,block1,j,1,1,13,53,9,1,1,bottom_right,neutral,threatening,0.7264,,,,,,,,,,,,,,,,,
,,,,,554903,f,y,r,n,11,0,2025-04-03_18h50.40.517,VisualSearchFaces,2024.2.4,MacIntel,116.2790698,,,,,,,,560.9125,561.0195,561.0195,563.0197,block1,f,1,1,14,54,24,1,0,bottom_right,neutral,no_target,1.0339,,,,,,,,,,,,,,,,,
,,,,,554903,f,y,r,n,11,0,2025-04-03_18h50.40.517,VisualSearchFaces,2024.2.4,MacIntel,116.2790698,,,,,,,,564.0211,564.1283,564.1283,566.128,block1,j,1,1,15,55,11,1,1,top_left,friendly,neutral,0.6849,,,,,,,,,,,,,,,,,
,,,,,554903,f,y,r,n,11,0,2025-04-03_18h50.40.517,VisualSearchFaces,2024.2.4,MacIntel,116.2790698,,,,,,,,567.1292,567.2364,567.2365,569.2363,block1,j,1,1,16,56,7,1,1,top_right,neutral,threatening,0.6923,,,,,,,,,,,,,,,,,
,,,,,554903,f,y,r,n,11,0,2025-04-03_18h50.40.517,VisualSearchFaces,2024.2.4,MacIntel,116.2790698,,,,,,,,570.2376,570.3446,570.3446,572.3436,block1,j,1,1,17,57,5,1,1,centre,neutral,threatening,0.5376,,,,,,,,,,,,,,,,,
,,,,,554903,f,y,r,n,11,0,2025-04-03_18h50.40.517,VisualSearchFaces,2024.2.4,MacIntel,116.2790698,,,,,,,,573.3457,573.4447,573.4448,575.4445,block1,f,1,1,18,58,30,1,0,centre,friendly,no_target,0.9039,,,,,,,,,,,,,,,,,
,,,,,554903,f,y,r,n,11,0,2025-04-03_18h50.40.517,VisualSearchFaces,2024.2.4,MacIntel,116.2790698,,,,,,,,576.446,576.5528,576.5528,578.5522,block1,j,1,1,19,59,10,1,1,centre,friendly,neutral,0.65,,,,,,,,,,,,,,,,,
,,,,,554903,f,y,r,n,11,0,2025-04-03_18h50.40.517,VisualSearchFaces,2024.2.4,MacIntel,116.2790698,,,,,,,,579.5531,579.6615,579.6615,581.6611,block1,f,1,1,20,60,25,1,0,centre,neutral,no_target,0.5958,,,,,,,,,,,,,,,,,
,,,,,554903,f,y,r,n,11,0,2025-04-03_18h50.40.517,VisualSearchFaces,2024.2.4,MacIntel,116.2790698,,,,,,,,582.6624,582.7696,582.7696,584.7697,block1,f,1,1,21,61,36,1,0,top_left,threatening,no_target,1.3345,,,,,,,,,,,,,,,,,
,,,,,554903,f,y,r,n,11,0,2025-04-03_18h50.40.517,VisualSearchFaces,2024.2.4,MacIntel,116.2790698,,,,,,,,585.7701,585.8698,585.8699,587.8695,block1,j,1,1,22,62,1,1,1,top_left,neutral,friendly,0.5021,,,,,,,,,,,,,,,,,
,,,,,554903,f,y,r,n,11,0,2025-04-03_18h50.40.517,VisualSearchFaces,2024.2.4,MacIntel,116.2790698,,,,,,,,588.8711,588.9773,588.9773,590.9771,block1,j,1,1,23,63,6,1,1,top_left,neutral,threatening,0.4851,,,,,,,,,,,,,,,,,
,,,,,554903,f,y,r,n,11,0,2025-04-03_18h50.40.517,VisualSearchFaces,2024.2.4,MacIntel,116.2790698,,,,,,,,591.9797,592.0863,592.0864,594.0854,block1,j,1,1,24,64,19,1,1,bottom_right,threatening,neutral,0.8499,,,,,,,,,,,,,,,,,
,,,,,554903,f,y,r,n,11,0,2025-04-03_18h50.40.517,VisualSearchFaces,2024.2.4,MacIntel,116.2790698,,,,,,,,595.0874,595.1946,595.1947,597.1946,block1,f,1,1,25,65,39,1,0,bottom_right,threatening,no_target,1.0412,,,,,,,,,,,,,,,,,
,,,,,554903,f,y,r,n,11,0,2025-04-03_18h50.40.517,VisualSearchFaces,2024.2.4,MacIntel,116.2790698,,,,,,,,598.196,598.2945,598.2947,600.2935,block1,j,0,1,26,66,29,1,0,bottom_right,neutral,no_target,0.7793,,,,,,,,,,,,,,,,,
,,,,,554903,f,y,r,n,11,0,2025-04-03_18h50.40.517,VisualSearchFaces,2024.2.4,MacIntel,116.2790698,,,,,,,,601.2955,601.402,601.4021,603.4028,block1,f,1,1,27,67,21,1,0,top_left,neutral,no_target,0.6927,,,,,,,,,,,,,,,,,
,,,,,554903,f,y,r,n,11,0,2025-04-03_18h50.40.517,VisualSearchFaces,2024.2.4,MacIntel,116.2790698,,,,,,,,604.4042,604.5111,604.5112,606.5113,block1,j,1,1,28,68,13,1,1,bottom_left,friendly,neutral,1.4954,,,,,,,,,,,,,,,,,
,,,,,554903,f,y,r,n,11,0,2025-04-03_18h50.40.517,VisualSearchFaces,2024.2.4,MacIntel,116.2790698,,,,,,,,607.5119,607.611,607.6111,609.6112,block1,j,1,1,29,69,17,1,1,top_right,threatening,neutral,0.9088,,,,,,,,,,,,,,,,,
,,,,,554903,f,y,r,n,11,0,2025-04-03_18h50.40.517,VisualSearchFaces,2024.2.4,MacIntel,116.2790698,,,,,,,,610.6124,610.7194,610.7195,612.7194,block1,j,1,1,30,70,16,1,1,top_left,threatening,neutral,0.6991,,,,,,,,,,,,,,,,,
,,,,,554903,f,y,r,n,11,0,2025-04-03_18h50.40.517,VisualSearchFaces,2024.2.4,MacIntel,116.2790698,,,,,,,,613.7195,613.8279,613.828,615.8276,block1,j,0,1,31,71,32,1,0,top_right,friendly,no_target,1.8697,,,,,,,,,,,,,,,,,
,,,,,554903,f,y,r,n,11,0,2025-04-03_18h50.40.517,VisualSearchFaces,2024.2.4,MacIntel,116.2790698,,,,,,,,616.8295,616.9361,616.9361,618.9362,block1,f,1,1,32,72,26,1,0,top_left,neutral,no_target,0.8204,,,,,,,,,,,,,,,,,
,,,,,554903,f,y,r,n,11,0,2025-04-03_18h50.40.517,VisualSearchFaces,2024.2.4,MacIntel,116.2790698,,,,,,,,619.9378,620.0448,620.0449,622.0443,block1,f,1,1,33,73,27,1,0,top_right,neutral,no_target,0.5224,,,,,,,,,,,,,,,,,
,,,,,554903,f,y,r,n,11,0,2025-04-03_18h50.40.517,VisualSearchFaces,2024.2.4,MacIntel,116.2790698,,,,,,,,623.0458,623.1527,623.1529,625.1526,block1,j,1,1,34,74,4,1,1,bottom_right,neutral,friendly,0.7902,,,,,,,,,,,,,,,,,
,,,,,554903,f,y,r,n,11,0,2025-04-03_18h50.40.517,VisualSearchFaces,2024.2.4,MacIntel,116.2790698,,,,,,,,626.1542,626.261,626.2611,628.261,block1,j,1,1,35,75,2,1,1,top_right,neutral,friendly,0.4444,,,,,,,,,,,,,,,,,
,,,,,554903,f,y,r,n,11,0,2025-04-03_18h50.40.517,VisualSearchFaces,2024.2.4,MacIntel,116.2790698,,,,,,,,629.2623,629.3692,629.3692,631.3686,block1,f,1,1,36,76,28,1,0,bottom_left,neutral,no_target,0.7512,,,,,,,,,,,,,,,,,
,,,,,554903,f,y,r,n,11,0,2025-04-03_18h50.40.517,VisualSearchFaces,2024.2.4,MacIntel,116.2790698,,,,,,,,632.3708,632.4768,632.4768,634.4779,block1,j,0,1,37,77,33,1,0,bottom_left,friendly,no_target,1.4845,,,,,,,,,,,,,,,,,
,,,,,554903,f,y,r,n,11,0,2025-04-03_18h50.40.517,VisualSearchFaces,2024.2.4,MacIntel,116.2790698,,,,,,,,635.48,635.5861,635.5861,637.586,block1,f,1,1,38,78,35,1,0,centre,threatening,no_target,1.2514,,,,,,,,,,,,,,,,,
,,,,,554903,f,y,r,n,11,0,2025-04-03_18h50.40.517,VisualSearchFaces,2024.2.4,MacIntel,116.2790698,,,,,,,,638.5871,638.6934,638.6935,640.6943,block1,j,1,1,39,79,15,1,1,centre,threatening,neutral,0.6386,,,,,,,,,,,,,,,,,
,,,,,554903,f,y,r,n,11,0,2025-04-03_18h50.40.517,VisualSearchFaces,2024.2.4,MacIntel,116.2790698,,,671.7795,683.9818,space,12.189,,684.9827,685.089,685.089,687.0899,block2,f,1,0,0,0,21,1,0,top_left,neutral,no_target,1.0401,,640.6961,671.777,space,31.0657,,,,,,,,,,,,
,,,,,554903,f,y,r,n,11,0,2025-04-03_18h50.40.517,VisualSearchFaces,2024.2.4,MacIntel,116.2790698,,,,,,,,688.0909,688.1982,688.1984,690.1981,block2,j,1,0,1,1,0,1,1,centre,neutral,friendly,0.5018,,,,,,,,,,,,,,,,,
,,,,,554903,f,y,r,n,11,0,2025-04-03_18h50.40.517,VisualSearchFaces,2024.2.4,MacIntel,116.2790698,,,,,,,,691.1993,691.3066,691.3066,693.3065,block2,f,1,0,2,2,33,1,0,bottom_left,friendly,no_target,0.9084,,,,,,,,,,,,,,,,,
,,,,,554903,f,y,r,n,11,0,2025-04-03_18h50.40.517,VisualSearchFaces,2024.2.4,MacIntel,116.2790698,,,,,,,,694.3077,694.4149,694.415,696.4149,block2,j,1,0,3,3,6,1,1,top_left,neutral,threatening,0.5184,,,,,,,,,,,,,,,,,
,,,,,554903,f,y,r,n,11,0,2025-04-03_18h50.40.517,VisualSearchFaces,2024.2.4,MacIntel,116.2790698,,,,,,,,697.4161,697.515,697.515,699.515,block2,f,1,0,4,4,25,1,0,centre,neutral,no_target,1.1328,,,,,,,,,,,,,,,,,
,,,,,554903,f,y,r,n,11,0,2025-04-03_18h50.40.517,VisualSearchFaces,2024.2.4,MacIntel,116.2790698,,,,,,,,700.5159,700.6231,700.6232,702.6232,block2,f,1,0,5,5,24,1,0,bottom_right,neutral,no_target,0.6386,,,,,,,,,,,,,,,,,
,,,,,554903,f,y,r,n,11,0,2025-04-03_18h50.40.517,VisualSearchFaces,2024.2.4,MacIntel,116.2790698,,,,,,,,703.6237,703.7231,703.7232,705.7223,block2,f,1,0,6,6,28,1,0,bottom_left,neutral,no_target,0.512,,,,,,,,,,,,,,,,,
,,,,,554903,f,y,r,n,11,0,2025-04-03_18h50.40.517,VisualSearchFaces,2024.2.4,MacIntel,116.2790698,,,,,,,,706.7242,706.8314,706.8315,708.8315,block2,f,0,0,7,7,18,1,1,bottom_left,threatening,neutral,1.575,,,,,,,,,,,,,,,,,
,,,,,554903,f,y,r,n,11,0,2025-04-03_18h50.40.517,VisualSearchFaces,2024.2.4,MacIntel,116.2790698,,,,,,,,709.8335,709.9316,709.9316,711.9316,block2,j,1,0,8,8,7,1,1,top_right,neutral,threatening,0.8006,,,,,,,,,,,,,,,,,
,,,,,554903,f,y,r,n,11,0,2025-04-03_18h50.40.517,VisualSearchFaces,2024.2.4,MacIntel,116.2790698,,,,,,,,712.933,713.0397,713.0398,715.0398,block2,f,1,0,9,9,22,1,0,top_right,neutral,no_target,0.4848,,,,,,,,,,,,,,,,,
,,,,,554903,f,y,r,n,11,0,2025-04-03_18h50.40.517,VisualSearchFaces,2024.2.4,MacIntel,116.2790698,,,,,,,,716.0401,716.1397,716.1398,718.1386,block2,f,1,0,10,10,38,1,0,bottom_left,threatening,no_target,1.5,,,,,,,,,,,,,,,,,
,,,,,554903,f,y,r,n,11,0,2025-04-03_18h50.40.517,VisualSearchFaces,2024.2.4,MacIntel,116.2790698,,,,,,,,719.1409,719.2399,719.2399,721.2392,block2,j,1,0,11,11,17,1,1,top_right,threatening,neutral,0.6005,,,,,,,,,,,,,,,,,
,,,,,554903,f,y,r,n,11,0,2025-04-03_18h50.40.517,VisualSearchFaces,2024.2.4,MacIntel,116.2790698,,,,,,,,722.2412,722.348,722.3481,724.348,block2,f,1,0,12,12,26,1,0,top_left,neutral,no_target,1.1506,,,,,,,,,,,,,,,,,
,,,,,554903,f,y,r,n,11,0,2025-04-03_18h50.40.517,VisualSearchFaces,2024.2.4,MacIntel,116.2790698,,,,,,,,725.3496,725.4565,725.4565,727.4563,block2,j,1,0,13,13,2,1,1,top_right,neutral,friendly,0.8665,,,,,,,,,,,,,,,,,
,,,,,554903,f,y,r,n,11,0,2025-04-03_18h50.40.517,VisualSearchFaces,2024.2.4,MacIntel,116.2790698,,,,,,,,728.4579,728.5647,728.5647,730.5637,block2,f,1,0,14,14,39,1,0,bottom_right,threatening,no_target,0.9835,,,,,,,,,,,,,,,,,
,,,,,554903,f,y,r,n,11,0,2025-04-03_18h50.40.517,VisualSearchFaces,2024.2.4,MacIntel,116.2790698,,,,,,,,731.5672,731.6731,731.6731,733.6729,block2,j,1,0,15,15,5,1,1,centre,neutral,threatening,1.5574,,,,,,,,,,,,,,,,,
,,,,,554903,f,y,r,n,11,0,2025-04-03_18h50.40.517,VisualSearchFaces,2024.2.4,MacIntel,116.2790698,,,,,,,,734.6743,734.7814,734.7814,736.7806,block2,,0,0,16,16,31,1,0,top_left,friendly,no_target,,,,,,,,,,,,,,,,,,
,,,,,554903,f,y,r,n,11,0,2025-04-03_18h50.40.517,VisualSearchFaces,2024.2.4,MacIntel,116.2790698,,,,,,,,737.782,737.8885,737.8885,739.8891,block2,j,1,0,17,17,1,1,1,top_left,neutral,friendly,0.9516,,,,,,,,,,,,,,,,,
,,,,,554903,f,y,r,n,11,0,2025-04-03_18h50.40.517,VisualSearchFaces,2024.2.4,MacIntel,116.2790698,,,,,,,,740.8921,740.9973,740.9974,742.9979,block2,f,1,0,18,18,34,1,0,bottom_right,friendly,no_target,0.8513,,,,,,,,,,,,,,,,,
,,,,,554903,f,y,r,n,11,0,2025-04-03_18h50.40.517,VisualSearchFaces,2024.2.4,MacIntel,116.2790698,,,,,,,,743.9995,744.1064,744.1064,746.1062,block2,j,1,0,19,19,8,1,1,bottom_left,neutral,threatening,1.6592,,,,,,,,,,,,,,,,,
,,,,,554903,f,y,r,n,11,0,2025-04-03_18h50.40.517,VisualSearchFaces,2024.2.4,MacIntel,116.2790698,,,,,,,,747.1075,747.2064,747.2065,749.2053,block2,f,1,0,20,20,27,1,0,top_right,neutral,no_target,0.8006,,,,,,,,,,,,,,,,,
,,,,,554903,f,y,r,n,11,0,2025-04-03_18h50.40.517,VisualSearchFaces,2024.2.4,MacIntel,116.2790698,,,,,,,,750.2076,750.3138,750.3138,752.3148,block2,j,1,0,21,21,19,1,1,bottom_right,threatening,neutral,0.9168,,,,,,,,,,,,,,,,,
,,,,,554903,f,y,r,n,11,0,2025-04-03_18h50.40.517,VisualSearchFaces,2024.2.4,MacIntel,116.2790698,,,,,,,,753.3164,753.423,753.4231,755.422,block2,j,1,0,22,22,16,1,1,top_left,threatening,neutral,0.6338,,,,,,,,,,,,,,,,,
,,,,,554903,f,y,r,n,11,0,2025-04-03_18h50.40.517,VisualSearchFaces,2024.2.4,MacIntel,116.2790698,,,,,,,,756.424,756.5312,756.5312,758.5311,block2,f,1,0,23,23,35,1,0,centre,threatening,no_target,1.8701,,,,,,,,,,,,,,,,,
,,,,,554903,f,y,r,n,11,0,2025-04-03_18h50.40.517,VisualSearchFaces,2024.2.4,MacIntel,116.2790698,,,,,,,,759.532,759.6312,759.6313,761.6313,block2,j,1,0,24,24,4,1,1,bottom_right,neutral,friendly,1.1247,,,,,,,,,,,,,,,,,
,,,,,554903,f,y,r,n,11,0,2025-04-03_18h50.40.517,VisualSearchFaces,2024.2.4,MacIntel,116.2790698,,,,,,,,762.6333,762.7388,762.7388,764.7386,block2,f,1,0,25,25,29,1,0,bottom_right,neutral,no_target,1.2584,,,,,,,,,,,,,,,,,
,,,,,554903,f,y,r,n,11,0,2025-04-03_18h50.40.517,VisualSearchFaces,2024.2.4,MacIntel,116.2790698,,,,,,,,765.7411,765.8479,765.848,767.8479,block2,j,1,0,26,26,13,1,1,bottom_left,friendly,neutral,1.892,,,,,,,,,,,,,,,,,
,,,,,554903,f,y,r,n,11,0,2025-04-03_18h50.40.517,VisualSearchFaces,2024.2.4,MacIntel,116.2790698,,,,,,,,768.8493,768.9563,768.9563,770.9562,block2,j,1,0,27,27,10,1,1,centre,friendly,neutral,0.4076,,,,,,,,,,,,,,,,,
,,,,,554903,f,y,r,n,11,0,2025-04-03_18h50.40.517,VisualSearchFaces,2024.2.4,MacIntel,116.2790698,,,,,,,,771.9579,772.0637,772.0637,774.0634,block2,f,0,0,28,28,14,1,1,bottom_right,friendly,neutral,0.9762,,,,,,,,,,,,,,,,,
,,,,,554903,f,y,r,n,11,0,2025-04-03_18h50.40.517,VisualSearchFaces,2024.2.4,MacIntel,116.2790698,,,,,,,,775.0663,775.1728,775.1729,777.1729,block2,f,1,0,29,29,32,1,0,top_right,friendly,no_target,0.9687,,,,,,,,,,,,,,,,,
,,,,,554903,f,y,r,n,11,0,2025-04-03_18h50.40.517,VisualSearchFaces,2024.2.4,MacIntel,116.2790698,,,,,,,,778.1741,778.2809,778.281,780.2809,block2,j,1,0,30,30,3,1,1,bottom_left,neutral,friendly,0.9123,,,,,,,,,,,,,,,,,
,,,,,554903,f,y,r,n,11,0,2025-04-03_18h50.40.517,VisualSearchFaces,2024.2.4,MacIntel,116.2790698,,,,,,,,781.2824,781.3895,781.3895,783.3884,block2,f,1,0,31,31,20,1,0,centre,neutral,no_target,0.8257,,,,,,,,,,,,,,,,,
,,,,,554903,f,y,r,n,11,0,2025-04-03_18h50.40.517,VisualSearchFaces,2024.2.4,MacIntel,116.2790698,,,,,,,,784.39,784.4978,784.4979,786.4978,block2,f,1,0,32,32,30,1,0,centre,friendly,no_target,0.5251,,,,,,,,,,,,,,,,,
,,,,,554903,f,y,r,n,11,0,2025-04-03_18h50.40.517,VisualSearchFaces,2024.2.4,MacIntel,116.2790698,,,,,,,,787.499,787.6062,787.6063,789.6061,block2,j,1,0,33,33,11,1,1,top_left,friendly,neutral,0.6496,,,,,,,,,,,,,,,,,
,,,,,554903,f,y,r,n,11,0,2025-04-03_18h50.40.517,VisualSearchFaces,2024.2.4,MacIntel,116.2790698,,,,,,,,790.6081,790.7144,790.7145,792.7136,block2,f,1,0,34,34,23,1,0,bottom_left,neutral,no_target,0.6839,,,,,,,,,,,,,,,,,
,,,,,554903,f,y,r,n,11,0,2025-04-03_18h50.40.517,VisualSearchFaces,2024.2.4,MacIntel,116.2790698,,,,,,,,793.7155,793.8219,793.8219,795.8224,block2,f,1,0,35,35,36,1,0,top_left,threatening,no_target,0.8436,,,,,,,,,,,,,,,,,
,,,,,554903,f,y,r,n,11,0,2025-04-03_18h50.40.517,VisualSearchFaces,2024.2.4,MacIntel,116.2790698,,,,,,,,796.8239,796.9311,796.9311,798.931,block2,f,1,0,36,36,37,1,0,top_right,threatening,no_target,0.7157,,,,,,,,,,,,,,,,,
,,,,,554903,f,y,r,n,11,0,2025-04-03_18h50.40.517,VisualSearchFaces,2024.2.4,MacIntel,116.2790698,,,,,,,,799.932,800.0394,800.0394,802.0394,block2,j,1,0,37,37,12,1,1,top_right,friendly,neutral,1.1507,,,,,,,,,,,,,,,,,
,,,,,554903,f,y,r,n,11,0,2025-04-03_18h50.40.517,VisualSearchFaces,2024.2.4,MacIntel,116.2790698,,,,,,,,803.0403,803.1477,803.1477,805.1475,block2,j,1,0,38,38,9,1,1,bottom_right,neutral,threatening,0.7509,,,,,,,,,,,,,,,,,
,,,,,554903,f,y,r,n,11,0,2025-04-03_18h50.40.517,VisualSearchFaces,2024.2.4,MacIntel,116.2790698,,,,,,,,806.149,806.2551,806.2552,808.2559,block2,f,0,0,39,39,15,1,1,centre,threatening,neutral,1.4259,,,,,,,,,,,,,,,,,
,,,,,554903,f,y,r,n,11,0,2025-04-03_18h50.40.517,VisualSearchFaces,2024.2.4,MacIntel,116.2790698,,,,,,,,809.2565,809.3643,809.3644,811.364,block2,f,1,1,0,40,35,1,0,centre,threatening,no_target,0.9036,,,,,,,,,,,,,,,,,
,,,,,554903,f,y,r,n,11,0,2025-04-03_18h50.40.517,VisualSearchFaces,2024.2.4,MacIntel,116.2790698,,,,,,,,812.3667,812.4726,812.4727,814.4726,block2,j,1,1,1,41,9,1,1,bottom_right,neutral,threatening,0.5081,,,,,,,,,,,,,,,,,
,,,,,554903,f,y,r,n,11,0,2025-04-03_18h50.40.517,VisualSearchFaces,2024.2.4,MacIntel,116.2790698,,,,,,,,815.4741,815.5806,815.5806,817.581,block2,j,1,1,2,42,2,1,1,top_right,neutral,friendly,0.7592,,,,,,,,,,,,,,,,,
,,,,,554903,f,y,r,n,11,0,2025-04-03_18h50.40.517,VisualSearchFaces,2024.2.4,MacIntel,116.2790698,,,,,,,,818.5825,818.6893,818.6894,820.6891,block2,f,1,1,3,43,30,1,0,centre,friendly,no_target,1.0954,,,,,,,,,,,,,,,,,
,,,,,554903,f,y,r,n,11,0,2025-04-03_18h50.40.517,VisualSearchFaces,2024.2.4,MacIntel,116.2790698,,,,,,,,821.6906,821.7974,821.7974,823.7976,block2,j,1,1,4,44,19,1,1,bottom_right,threatening,neutral,1.4847,,,,,,,,,,,,,,,,,
,,,,,554903,f,y,r,n,11,0,2025-04-03_18h50.40.517,VisualSearchFaces,2024.2.4,MacIntel,116.2790698,,,,,,,,824.7988,824.9059,824.906,826.9052,block2,j,1,1,5,45,10,1,1,centre,friendly,neutral,0.4243,,,,,,,,,,,,,,,,,
,,,,,554903,f,y,r,n,11,0,2025-04-03_18h50.40.517,VisualSearchFaces,2024.2.4,MacIntel,116.2790698,,,,,,,,827.9082,828.0134,828.0135,830.014,block2,f,1,1,6,46,36,1,0,top_left,threatening,no_target,0.6013,,,,,,,,,,,,,,,,,
,,,,,554903,f,y,r,n,11,0,2025-04-03_18h50.40.517,VisualSearchFaces,2024.2.4,MacIntel,116.2790698,,,,,,,,831.0153,831.1226,831.1227,833.1223,block2,f,1,1,7,47,37,1,0,top_right,threatening,no_target,0.5677,,,,,,,,,,,,,,,,,
,,,,,554903,f,y,r,n,11,0,2025-04-03_18h50.40.517,VisualSearchFaces,2024.2.4,MacIntel,116.2790698,,,,,,,,834.1231,834.2224,834.2225,836.2223,block2,f,1,1,8,48,39,1,0,bottom_right,threatening,no_target,0.9526,,,,,,,,,,,,,,,,,
,,,,,554903,f,y,r,n,11,0,2025-04-03_18h50.40.517,VisualSearchFaces,2024.2.4,MacIntel,116.2790698,,,,,,,,837.224,837.3309,837.331,839.3305,block2,f,1,1,9,49,26,1,0,top_left,neutral,no_target,0.7762,,,,,,,,,,,,,,,,,
,,,,,554903,f,y,r,n,11,0,2025-04-03_18h50.40.517,VisualSearchFaces,2024.2.4,MacIntel,116.2790698,,,,,,,,840.3322,840.4383,840.4383,842.4391,block2,,0,1,10,50,38,1,0,bottom_left,threatening,no_target,,,,,,,,,,,,,,,,,,
,,,,,554903,f,y,r,n,11,0,2025-04-03_18h50.40.517,VisualSearchFaces,2024.2.4,MacIntel,116.2790698,,,,,,,,843.4407,843.5466,843.5467,845.5471,block2,j,1,1,11,51,3,1,1,bottom_left,neutral,friendly,0.4929,,,,,,,,,,,,,,,,,
,,,,,554903,f,y,r,n,11,0,2025-04-03_18h50.40.517,VisualSearchFaces,2024.2.4,MacIntel,116.2790698,,,,,,,,846.5485,846.6552,846.6553,848.6558,block2,f,1,1,12,52,32,1,0,top_right,friendly,no_target,1.0249,,,,,,,,,,,,,,,,,
,,,,,554903,f,y,r,n,11,0,2025-04-03_18h50.40.517,VisualSearchFaces,2024.2.4,MacIntel,116.2790698,,,,,,,,849.6569,849.7638,849.7638,851.7639,block2,f,1,1,13,53,31,1,0,top_left,friendly,no_target,0.513,,,,,,,,,,,,,,,,,
,,,,,554903,f,y,r,n,11,0,2025-04-03_18h50.40.517,VisualSearchFaces,2024.2.4,MacIntel,116.2790698,,,,,,,,852.7651,852.8715,852.8715,854.8722,block2,j,1,1,14,54,7,1,1,top_right,neutral,threatening,0.4758,,,,,,,,,,,,,,,,,
,,,,,554903,f,y,r,n,11,0,2025-04-03_18h50.40.517,VisualSearchFaces,2024.2.4,MacIntel,116.2790698,,,,,,,,855.8741,855.9806,855.9806,857.9801,block2,j,1,1,15,55,18,1,1,bottom_left,threatening,neutral,0.5958,,,,,,,,,,,,,,,,,
,,,,,554903,f,y,r,n,11,0,2025-04-03_18h50.40.517,VisualSearchFaces,2024.2.4,MacIntel,116.2790698,,,,,,,,858.982,859.0891,859.0892,861.0882,block2,f,1,1,16,56,22,1,0,top_right,neutral,no_target,0.4927,,,,,,,,,,,,,,,,,
,,,,,554903,f,y,r,n,11,0,2025-04-03_18h50.40.517,VisualSearchFaces,2024.2.4,MacIntel,116.2790698,,,,,,,,862.0903,862.1969,862.197,864.1971,block2,j,1,1,17,57,0,1,1,centre,neutral,friendly,0.5088,,,,,,,,,,,,,,,,,
,,,,,554903,f,y,r,n,11,0,2025-04-03_18h50.40.517,VisualSearchFaces,2024.2.4,MacIntel,116.2790698,,,,,,,,865.1988,865.3056,865.3057,867.3055,block2,f,1,1,18,58,27,1,0,top_right,neutral,no_target,0.5091,,,,,,,,,,,,,,,,,
,,,,,554903,f,y,r,n,11,0,2025-04-03_18h50.40.517,VisualSearchFaces,2024.2.4,MacIntel,116.2790698,,,,,,,,868.3067,868.4141,868.4142,870.4138,block2,f,1,1,19,59,24,1,0,bottom_right,neutral,no_target,0.4592,,,,,,,,,,,,,,,,,
,,,,,554903,f,y,r,n,11,0,2025-04-03_18h50.40.517,VisualSearchFaces,2024.2.4,MacIntel,116.2790698,,,,,,,,871.4155,871.5224,871.5225,873.5223,block2,j,1,1,20,60,16,1,1,top_left,threatening,neutral,0.5427,,,,,,,,,,,,,,,,,
,,,,,554903,f,y,r,n,11,0,2025-04-03_18h50.40.517,VisualSearchFaces,2024.2.4,MacIntel,116.2790698,,,,,,,,874.5235,874.6223,874.6224,876.6214,block2,j,1,1,21,61,1,1,1,top_left,neutral,friendly,0.596,,,,,,,,,,,,,,,,,
,,,,,554903,f,y,r,n,11,0,2025-04-03_18h50.40.517,VisualSearchFaces,2024.2.4,MacIntel,116.2790698,,,,,,,,877.6246,877.7305,877.7306,879.7306,block2,f,1,1,22,62,28,1,0,bottom_left,neutral,no_target,0.6499,,,,,,,,,,,,,,,,,
,,,,,554903,f,y,r,n,11,0,2025-04-03_18h50.40.517,VisualSearchFaces,2024.2.4,MacIntel,116.2790698,,,,,,,,880.7324,880.839,880.8391,882.8388,block2,j,0,1,23,63,34,1,0,bottom_right,friendly,no_target,1.4012,,,,,,,,,,,,,,,,,
,,,,,554903,f,y,r,n,11,0,2025-04-03_18h50.40.517,VisualSearchFaces,2024.2.4,MacIntel,116.2790698,,,,,,,,883.8401,883.9468,883.9468,885.9473,block2,f,1,1,24,64,29,1,0,bottom_right,neutral,no_target,0.7926,,,,,,,,,,,,,,,,,
,,,,,554903,f,y,r,n,11,0,2025-04-03_18h50.40.517,VisualSearchFaces,2024.2.4,MacIntel,116.2790698,,,,,,,,886.9483,887.0473,887.0475,889.0469,block2,f,0,1,25,65,15,1,1,centre,threatening,neutral,1.468,,,,,,,,,,,,,,,,,
,,,,,554903,f,y,r,n,11,0,2025-04-03_18h50.40.517,VisualSearchFaces,2024.2.4,MacIntel,116.2790698,,,,,,,,890.0491,890.1553,890.1553,892.1547,block2,j,1,1,26,66,17,1,1,top_right,threatening,neutral,0.7279,,,,,,,,,,,,,,,,,
,,,,,554903,f,y,r,n,11,0,2025-04-03_18h50.40.517,VisualSearchFaces,2024.2.4,MacIntel,116.2790698,,,,,,,,893.1568,893.264,893.2641,895.2635,block2,j,1,1,27,67,4,1,1,bottom_right,neutral,friendly,0.7336,,,,,,,,,,,,,,,,,
,,,,,554903,f,y,r,n,11,0,2025-04-03_18h50.40.517,VisualSearchFaces,2024.2.4,MacIntel,116.2790698,,,,,,,,896.2661,896.3714,896.3714,898.372,block2,j,1,1,28,68,5,1,1,centre,neutral,threatening,0.9916,,,,,,,,,,,,,,,,,
,,,,,554903,f,y,r,n,11,0,2025-04-03_18h50.40.517,VisualSearchFaces,2024.2.4,MacIntel,116.2790698,,,,,,,,899.3733,899.4806,899.4806,901.4801,block2,f,1,1,29,69,23,1,0,bottom_left,neutral,no_target,0.7331,,,,,,,,,,,,,,,,,
,,,,,554903,f,y,r,n,11,0,2025-04-03_18h50.40.517,VisualSearchFaces,2024.2.4,MacIntel,116.2790698,,,,,,,,902.4818,902.5889,902.5889,904.5888,block2,j,1,1,30,70,14,1,1,bottom_right,friendly,neutral,0.8684,,,,,,,,,,,,,,,,,
,,,,,554903,f,y,r,n,11,0,2025-04-03_18h50.40.517,VisualSearchFaces,2024.2.4,MacIntel,116.2790698,,,,,,,,905.59,905.6964,905.6964,907.6962,block2,j,1,1,31,71,13,1,1,bottom_left,friendly,neutral,0.7837,,,,,,,,,,,,,,,,,
,,,,,554903,f,y,r,n,11,0,2025-04-03_18h50.40.517,VisualSearchFaces,2024.2.4,MacIntel,116.2790698,,,,,,,,908.6987,908.8057,908.8057,910.8055,block2,f,1,1,32,72,21,1,0,top_left,neutral,no_target,0.5173,,,,,,,,,,,,,,,,,
,,,,,554903,f,y,r,n,11,0,2025-04-03_18h50.40.517,VisualSearchFaces,2024.2.4,MacIntel,116.2790698,,,,,,,,911.8065,911.913,911.913,913.9136,block2,j,1,1,33,73,11,1,1,top_left,friendly,neutral,0.503,,,,,,,,,,,,,,,,,
,,,,,554903,f,y,r,n,11,0,2025-04-03_18h50.40.517,VisualSearchFaces,2024.2.4,MacIntel,116.2790698,,,,,,,,914.9158,915.022,915.022,917.0221,block2,f,1,1,34,74,25,1,0,centre,neutral,no_target,0.7384,,,,,,,,,,,,,,,,,
,,,,,554903,f,y,r,n,11,0,2025-04-03_18h50.40.517,VisualSearchFaces,2024.2.4,MacIntel,116.2790698,,,,,,,,918.0231,918.1221,918.1222,920.1222,block2,j,1,1,35,75,8,1,1,bottom_left,neutral,threatening,0.4993,,,,,,,,,,,,,,,,,
,,,,,554903,f,y,r,n,11,0,2025-04-03_18h50.40.517,VisualSearchFaces,2024.2.4,MacIntel,116.2790698,,,,,,,,921.1234,921.2305,921.2305,923.2301,block2,f,1,1,36,76,20,1,0,centre,neutral,no_target,0.7082,,,,,,,,,,,,,,,,,
,,,,,554903,f,y,r,n,11,0,2025-04-03_18h50.40.517,VisualSearchFaces,2024.2.4,MacIntel,116.2790698,,,,,,,,924.2314,924.3386,924.3387,926.3376,block2,j,1,1,37,77,6,1,1,top_left,neutral,threatening,1.2354,,,,,,,,,,,,,,,,,
,,,,,554903,f,y,r,n,11,0,2025-04-03_18h50.40.517,VisualSearchFaces,2024.2.4,MacIntel,116.2790698,,,,,,,,927.3394,927.4386,927.4386,929.4386,block2,f,1,1,38,78,33,1,0,bottom_left,friendly,no_target,1.45,,,,,,,,,,,,,,,,,
,,,,,554903,f,y,r,n,11,0,2025-04-03_18h50.40.517,VisualSearchFaces,2024.2.4,MacIntel,116.2790698,,,,,,,,930.44,930.5471,930.5472,932.547,block2,j,1,1,39,79,12,1,1,top_right,friendly,neutral,0.5487,,,,,,,,,,,,,,,,,
,,,,,554903,f,y,r,n,11,0,2025-04-03_18h50.40.517,VisualSearchFaces,2024.2.4,MacIntel,116.2790698,,,979.9158,1009.9469,space,30.0175,,1010.9471,1011.0466,1011.0467,1013.0462,block3,j,0,0,0,0,38,1,0,bottom_left,threatening,no_target,0.9421,,932.5483,979.9136,space,47.3509,,,,,,,,,,,,
,,,,,554903,f,y,r,n,11,0,2025-04-03_18h50.40.517,VisualSearchFaces,2024.2.4,MacIntel,116.2790698,,,,,,,,1014.0482,1014.1548,1014.1549,1016.1548,block3,j,1,0,1,1,10,1,1,centre,friendly,neutral,0.7239,,,,,,,,,,,,,,,,,
,,,,,554903,f,y,r,n,11,0,2025-04-03_18h50.40.517,VisualSearchFaces,2024.2.4,MacIntel,116.2790698,,,,,,,,1017.1559,1017.2548,1017.2549,1019.2547,block3,j,1,0,2,2,8,1,1,bottom_left,neutral,threatening,0.5761,,,,,,,,,,,,,,,,,
,,,,,554903,f,y,r,n,11,0,2025-04-03_18h50.40.517,VisualSearchFaces,2024.2.4,MacIntel,116.2790698,,,,,,,,1020.2558,1020.3633,1020.3634,1022.3633,block3,j,1,0,3,3,15,1,1,centre,threatening,neutral,0.5368,,,,,,,,,,,,,,,,,
,,,,,554903,f,y,r,n,11,0,2025-04-03_18h50.40.517,VisualSearchFaces,2024.2.4,MacIntel,116.2790698,,,,,,,,1023.3648,1023.4715,1023.4716,1025.4715,block3,f,1,0,4,4,25,1,0,centre,neutral,no_target,0.725,,,,,,,,,,,,,,,,,
,,,,,554903,f,y,r,n,11,0,2025-04-03_18h50.40.517,VisualSearchFaces,2024.2.4,MacIntel,116.2790698,,,,,,,,1026.4727,1026.5801,1026.5801,1028.58,block3,j,1,0,5,5,0,1,1,centre,neutral,friendly,0.6579,,,,,,,,,,,,,,,,,
,,,,,554903,f,y,r,n,11,0,2025-04-03_18h50.40.517,VisualSearchFaces,2024.2.4,MacIntel,116.2790698,,,,,,,,1029.5814,1029.6872,1029.6872,1031.6881,block3,j,1,0,6,6,9,1,1,bottom_right,neutral,threatening,0.5101,,,,,,,,,,,,,,,,,
,,,,,554903,f,y,r,n,11,0,2025-04-03_18h50.40.517,VisualSearchFaces,2024.2.4,MacIntel,116.2790698,,,,,,,,1032.6884,1032.7882,1032.7882,1034.7877,block3,j,1,0,7,7,7,1,1,top_right,neutral,threatening,0.4674,,,,,,,,,,,,,,,,,
,,,,,554903,f,y,r,n,11,0,2025-04-03_18h50.40.517,VisualSearchFaces,2024.2.4,MacIntel,116.2790698,,,,,,,,1035.7897,1035.896,1035.8961,1037.8954,block3,f,1,0,8,8,37,1,0,top_right,threatening,no_target,0.7017,,,,,,,,,,,,,,,,,
,,,,,554903,f,y,r,n,11,0,2025-04-03_18h50.40.517,VisualSearchFaces,2024.2.4,MacIntel,116.2790698,,,,,,,,1038.8977,1039.0044,1039.0046,1041.0046,block3,f,1,0,9,9,39,1,0,bottom_right,threatening,no_target,0.8248,,,,,,,,,,,,,,,,,
,,,,,554903,f,y,r,n,11,0,2025-04-03_18h50.40.517,VisualSearchFaces,2024.2.4,MacIntel,116.2790698,,,,,,,,1042.0059,1042.1128,1042.1128,1044.1124,block3,f,1,0,10,10,35,1,0,centre,threatening,no_target,1.8628,,,,,,,,,,,,,,,,,
,,,,,554903,f,y,r,n,11,0,2025-04-03_18h50.40.517,VisualSearchFaces,2024.2.4,MacIntel,116.2790698,,,,,,,,1045.1155,1045.2214,1045.2216,1047.2213,block3,j,1,0,11,11,5,1,1,centre,neutral,threatening,0.7175,,,,,,,,,,,,,,,,,
,,,,,554903,f,y,r,n,11,0,2025-04-03_18h50.40.517,VisualSearchFaces,2024.2.4,MacIntel,116.2790698,,,,,,,,1048.2229,1048.3299,1048.3299,1050.3288,block3,f,0,0,12,12,19,1,1,bottom_right,threatening,neutral,0.5768,,,,,,,,,,,,,,,,,
,,,,,554903,f,y,r,n,11,0,2025-04-03_18h50.40.517,VisualSearchFaces,2024.2.4,MacIntel,116.2790698,,,,,,,,1051.332,1051.4373,1051.4373,1053.4371,block3,f,1,0,13,13,29,1,0,bottom_right,neutral,no_target,0.6592,,,,,,,,,,,,,,,,,
,,,,,554903,f,y,r,n,11,0,2025-04-03_18h50.40.517,VisualSearchFaces,2024.2.4,MacIntel,116.2790698,,,,,,,,1054.4396,1054.5463,1054.5464,1056.5464,block3,f,1,0,14,14,21,1,0,top_left,neutral,no_target,0.5998,,,,,,,,,,,,,,,,,
,,,,,554903,f,y,r,n,11,0,2025-04-03_18h50.40.517,VisualSearchFaces,2024.2.4,MacIntel,116.2790698,,,,,,,,1057.5473,1057.6462,1057.6462,1059.6462,block3,j,1,0,15,15,17,1,1,top_right,threatening,neutral,0.5678,,,,,,,,,,,,,,,,,
,,,,,554903,f,y,r,n,11,0,2025-04-03_18h50.40.517,VisualSearchFaces,2024.2.4,MacIntel,116.2790698,,,,,,,,1060.6472,1060.7463,1060.7463,1062.7462,block3,j,1,0,16,16,3,1,1,bottom_left,neutral,friendly,0.6513,,,,,,,,,,,,,,,,,
,,,,,554903,f,y,r,n,11,0,2025-04-03_18h50.40.517,VisualSearchFaces,2024.2.4,MacIntel,116.2790698,,,,,,,,1063.7475,1063.8548,1063.8548,1065.8547,block3,f,1,0,17,17,26,1,0,top_left,neutral,no_target,0.5078,,,,,,,,,,,,,,,,,
,,,,,554903,f,y,r,n,11,0,2025-04-03_18h50.40.517,VisualSearchFaces,2024.2.4,MacIntel,116.2790698,,,,,,,,1066.8568,1066.9631,1066.9631,1068.9629,block3,f,1,0,18,18,33,1,0,bottom_left,friendly,no_target,0.6212,,,,,,,,,,,,,,,,,
,,,,,554903,f,y,r,n,11,0,2025-04-03_18h50.40.517,VisualSearchFaces,2024.2.4,MacIntel,116.2790698,,,,,,,,1069.9641,1070.0712,1070.0712,1072.0704,block3,f,0,0,19,19,14,1,1,bottom_right,friendly,neutral,0.5842,,,,,,,,,,,,,,,,,
,,,,,554903,f,y,r,n,11,0,2025-04-03_18h50.40.517,VisualSearchFaces,2024.2.4,MacIntel,116.2790698,,,,,,,,1073.0727,1073.1799,1073.1799,1075.1796,block3,f,1,0,20,20,32,1,0,top_right,friendly,no_target,0.8352,,,,,,,,,,,,,,,,,
,,,,,554903,f,y,r,n,11,0,2025-04-03_18h50.40.517,VisualSearchFaces,2024.2.4,MacIntel,116.2790698,,,,,,,,1076.1807,1076.288,1076.2881,1078.2879,block3,f,1,0,21,21,36,1,0,top_left,threatening,no_target,1.235,,,,,,,,,,,,,,,,,
,,,,,554903,f,y,r,n,11,0,2025-04-03_18h50.40.517,VisualSearchFaces,2024.2.4,MacIntel,116.2790698,,,,,,,,1079.2882,1079.3881,1079.3882,1081.3879,block3,j,1,0,22,22,1,1,1,top_left,neutral,friendly,0.5749,,,,,,,,,,,,,,,,,
,,,,,554903,f,y,r,n,11,0,2025-04-03_18h50.40.517,VisualSearchFaces,2024.2.4,MacIntel,116.2790698,,,,,,,,1082.3882,1082.4964,1082.4965,1084.4965,block3,f,0,0,23,23,18,1,1,bottom_left,threatening,neutral,0.917,,,,,,,,,,,,,,,,,
,,,,,554903,f,y,r,n,11,0,2025-04-03_18h50.40.517,VisualSearchFaces,2024.2.4,MacIntel,116.2790698,,,,,,,,1085.497,1085.596,1085.5961,1087.5952,block3,f,1,0,24,24,23,1,0,bottom_left,neutral,no_target,0.8597,,,,,,,,,,,,,,,,,
,,,,,554903,f,y,r,n,11,0,2025-04-03_18h50.40.517,VisualSearchFaces,2024.2.4,MacIntel,116.2790698,,,,,,,,1088.5976,1088.7047,1088.7047,1090.7044,block3,f,1,0,25,25,22,1,0,top_right,neutral,no_target,0.3926,,,,,,,,,,,,,,,,,
,,,,,554903,f,y,r,n,11,0,2025-04-03_18h50.40.517,VisualSearchFaces,2024.2.4,MacIntel,116.2790698,,,,,,,,1091.7055,1091.8129,1091.8129,1093.8119,block3,j,1,0,26,26,11,1,1,top_left,friendly,neutral,0.6005,,,,,,,,,,,,,,,,,
,,,,,554903,f,y,r,n,11,0,2025-04-03_18h50.40.517,VisualSearchFaces,2024.2.4,MacIntel,116.2790698,,,,,,,,1094.814,1094.9212,1094.9213,1096.9211,block3,f,1,0,27,27,34,1,0,bottom_right,friendly,no_target,0.8165,,,,,,,,,,,,,,,,,
,,,,,554903,f,y,r,n,11,0,2025-04-03_18h50.40.517,VisualSearchFaces,2024.2.4,MacIntel,116.2790698,,,,,,,,1097.9232,1098.0296,1098.0297,1100.0294,block3,f,1,0,28,28,28,1,0,bottom_left,neutral,no_target,0.6249,,,,,,,,,,,,,,,,,
,,,,,554903,f,y,r,n,11,0,2025-04-03_18h50.40.517,VisualSearchFaces,2024.2.4,MacIntel,116.2790698,,,,,,,,1101.0297,1101.1295,1101.1295,1103.1292,block3,f,1,0,29,29,27,1,0,top_right,neutral,no_target,0.5411,,,,,,,,,,,,,,,,,
,,,,,554903,f,y,r,n,11,0,2025-04-03_18h50.40.517,VisualSearchFaces,2024.2.4,MacIntel,116.2790698,,,,,,,,1104.1306,1104.2378,1104.2378,1106.2374,block3,f,1,0,30,30,24,1,0,bottom_right,neutral,no_target,0.4678,,,,,,,,,,,,,,,,,
,,,,,554903,f,y,r,n,11,0,2025-04-03_18h50.40.517,VisualSearchFaces,2024.2.4,MacIntel,116.2790698,,,,,,,,1107.2402,1107.3461,1107.3462,1109.3461,block3,f,1,0,31,31,30,1,0,centre,friendly,no_target,0.8004,,,,,,,,,,,,,,,,,
,,,,,554903,f,y,r,n,11,0,2025-04-03_18h50.40.517,VisualSearchFaces,2024.2.4,MacIntel,116.2790698,,,,,,,,1110.3464,1110.4461,1110.4461,1112.4457,block3,j,1,0,32,32,6,1,1,top_left,neutral,threatening,0.5005,,,,,,,,,,,,,,,,,
,,,,,554903,f,y,r,n,11,0,2025-04-03_18h50.40.517,VisualSearchFaces,2024.2.4,MacIntel,116.2790698,,,,,,,,1113.4471,1113.5461,1113.5461,1115.546,block3,f,1,0,33,33,20,1,0,centre,neutral,no_target,0.5426,,,,,,,,,,,,,,,,,
,,,,,554903,f,y,r,n,11,0,2025-04-03_18h50.40.517,VisualSearchFaces,2024.2.4,MacIntel,116.2790698,,,,,,,,1116.5473,1116.6544,1116.6546,1118.6542,block3,j,1,0,34,34,13,1,1,bottom_left,friendly,neutral,1.0927,,,,,,,,,,,,,,,,,
,,,,,554903,f,y,r,n,11,0,2025-04-03_18h50.40.517,VisualSearchFaces,2024.2.4,MacIntel,116.2790698,,,,,,,,1119.6555,1119.7628,1119.7629,1121.7628,block3,j,1,0,35,35,12,1,1,top_right,friendly,neutral,0.4999,,,,,,,,,,,,,,,,,
,,,,,554903,f,y,r,n,11,0,2025-04-03_18h50.40.517,VisualSearchFaces,2024.2.4,MacIntel,116.2790698,,,,,,,,1122.7633,1122.8627,1122.8627,1124.8621,block3,j,1,0,36,36,16,1,1,top_left,threatening,neutral,0.6464,,,,,,,,,,,,,,,,,
,,,,,554903,f,y,r,n,11,0,2025-04-03_18h50.40.517,VisualSearchFaces,2024.2.4,MacIntel,116.2790698,,,,,,,,1125.864,1125.9709,1125.971,1127.97,block3,f,1,0,37,37,31,1,0,top_left,friendly,no_target,0.7169,,,,,,,,,,,,,,,,,
,,,,,554903,f,y,r,n,11,0,2025-04-03_18h50.40.517,VisualSearchFaces,2024.2.4,MacIntel,116.2790698,,,,,,,,1128.9726,1129.0796,1129.0796,1131.0781,block3,j,1,0,38,38,4,1,1,bottom_right,neutral,friendly,0.6441,,,,,,,,,,,,,,,,,
,,,,,554903,f,y,r,n,11,0,2025-04-03_18h50.40.517,VisualSearchFaces,2024.2.4,MacIntel,116.2790698,,,,,,,,1132.0809,1132.1876,1132.1876,1134.1867,block3,j,1,0,39,39,2,1,1,top_right,neutral,friendly,0.4531,,,,,,,,,,,,,,,,,
,,,,,554903,f,y,r,n,11,0,2025-04-03_18h50.40.517,VisualSearchFaces,2024.2.4,MacIntel,116.2790698,,,,,,,,1135.1888,1135.2951,1135.2951,1137.2948,block3,j,1,1,0,40,1,1,1,top_left,neutral,friendly,0.5505,,,,,,,,,,,,,,,,,
,,,,,554903,f,y,r,n,11,0,2025-04-03_18h50.40.517,VisualSearchFaces,2024.2.4,MacIntel,116.2790698,,,,,,,,1138.2961,1138.3961,1138.3962,1140.3957,block3,j,1,1,1,41,3,1,1,bottom_left,neutral,friendly,0.4915,,,,,,,,,,,,,,,,,
,,,,,554903,f,y,r,n,11,0,2025-04-03_18h50.40.517,VisualSearchFaces,2024.2.4,MacIntel,116.2790698,,,,,,,,1141.3972,1141.5042,1141.5042,1143.5043,block3,j,0,1,2,42,36,1,0,top_left,threatening,no_target,0.6098,,,,,,,,,,,,,,,,,
,,,,,554903,f,y,r,n,11,0,2025-04-03_18h50.40.517,VisualSearchFaces,2024.2.4,MacIntel,116.2790698,,,,,,,,1144.505,1144.6044,1144.6044,1146.6039,block3,f,1,1,3,43,35,1,0,centre,threatening,no_target,0.7692,,,,,,,,,,,,,,,,,
,,,,,554903,f,y,r,n,11,0,2025-04-03_18h50.40.517,VisualSearchFaces,2024.2.4,MacIntel,116.2790698,,,,,,,,1147.605,1147.7042,1147.7043,1149.7042,block3,f,1,1,4,44,33,1,0,bottom_left,friendly,no_target,0.7909,,,,,,,,,,,,,,,,,
,,,,,554903,f,y,r,n,11,0,2025-04-03_18h50.40.517,VisualSearchFaces,2024.2.4,MacIntel,116.2790698,,,,,,,,1150.7055,1150.8124,1150.8125,1152.8125,block3,f,1,1,5,45,34,1,0,bottom_right,friendly,no_target,0.5334,,,,,,,,,,,,,,,,,
,,,,,554903,f,y,r,n,11,0,2025-04-03_18h50.40.517,VisualSearchFaces,2024.2.4,MacIntel,116.2790698,,,,,,,,1153.8139,1153.9207,1153.9208,1155.9208,block3,f,1,1,6,46,26,1,0,top_left,neutral,no_target,0.8675,,,,,,,,,,,,,,,,,
,,,,,554903,f,y,r,n,11,0,2025-04-03_18h50.40.517,VisualSearchFaces,2024.2.4,MacIntel,116.2790698,,,,,,,,1156.9219,1157.0292,1157.0292,1159.0292,block3,f,1,1,7,47,39,1,0,bottom_right,threatening,no_target,1.2929,,,,,,,,,,,,,,,,,
,,,,,554903,f,y,r,n,11,0,2025-04-03_18h50.40.517,VisualSearchFaces,2024.2.4,MacIntel,116.2790698,,,,,,,,1160.0303,1160.1376,1160.1377,1162.1374,block3,f,1,1,8,48,20,1,0,centre,neutral,no_target,0.5341,,,,,,,,,,,,,,,,,
,,,,,554903,f,y,r,n,11,0,2025-04-03_18h50.40.517,VisualSearchFaces,2024.2.4,MacIntel,116.2790698,,,,,,,,1163.1389,1163.2457,1163.2457,1165.2457,block3,f,1,1,9,49,37,1,0,top_right,threatening,no_target,1.0335,,,,,,,,,,,,,,,,,
,,,,,554903,f,y,r,n,11,0,2025-04-03_18h50.40.517,VisualSearchFaces,2024.2.4,MacIntel,116.2790698,,,,,,,,1166.2473,1166.3542,1166.3542,1168.3541,block3,f,1,1,10,50,31,1,0,top_left,friendly,no_target,0.843,,,,,,,,,,,,,,,,,
,,,,,554903,f,y,r,n,11,0,2025-04-03_18h50.40.517,VisualSearchFaces,2024.2.4,MacIntel,116.2790698,,,,,,,,1169.3556,1169.4615,1169.4615,1171.4624,block3,f,1,1,11,51,27,1,0,top_right,neutral,no_target,1.0349,,,,,,,,,,,,,,,,,
,,,,,554903,f,y,r,n,11,0,2025-04-03_18h50.40.517,VisualSearchFaces,2024.2.4,MacIntel,116.2790698,,,,,,,,1172.4635,1172.571,1172.571,1174.5705,block3,j,1,1,12,52,19,1,1,bottom_right,threatening,neutral,0.6167,,,,,,,,,,,,,,,,,
,,,,,554903,f,y,r,n,11,0,2025-04-03_18h50.40.517,VisualSearchFaces,2024.2.4,MacIntel,116.2790698,,,,,,,,1175.572,1175.6781,1175.6782,1177.679,block3,j,1,1,13,53,17,1,1,top_right,threatening,neutral,0.5263,,,,,,,,,,,,,,,,,
,,,,,554903,f,y,r,n,11,0,2025-04-03_18h50.40.517,VisualSearchFaces,2024.2.4,MacIntel,116.2790698,,,,,,,,1178.6791,1178.7785,1178.7786,1180.7791,block3,j,1,1,14,54,2,1,1,top_right,neutral,friendly,0.4264,,,,,,,,,,,,,,,,,
,,,,,554903,f,y,r,n,11,0,2025-04-03_18h50.40.517,VisualSearchFaces,2024.2.4,MacIntel,116.2790698,,,,,,,,1181.7803,1181.8874,1181.8874,1183.8872,block3,f,1,1,15,55,24,1,0,bottom_right,neutral,no_target,0.459,,,,,,,,,,,,,,,,,
,,,,,554903,f,y,r,n,11,0,2025-04-03_18h50.40.517,VisualSearchFaces,2024.2.4,MacIntel,116.2790698,,,,,,,,1184.8887,1184.9948,1184.9949,1186.9954,block3,f,1,1,16,56,30,1,0,centre,friendly,no_target,1.2925,,,,,,,,,,,,,,,,,
,,,,,554903,f,y,r,n,11,0,2025-04-03_18h50.40.517,VisualSearchFaces,2024.2.4,MacIntel,116.2790698,,,,,,,,1187.997,1188.1039,1188.104,1190.104,block3,f,1,1,17,57,23,1,0,bottom_left,neutral,no_target,0.5331,,,,,,,,,,,,,,,,,
,,,,,554903,f,y,r,n,11,0,2025-04-03_18h50.40.517,VisualSearchFaces,2024.2.4,MacIntel,116.2790698,,,,,,,,1191.1048,1191.2039,1191.204,1193.2041,block3,f,0,1,18,58,15,1,1,centre,threatening,neutral,1.22,,,,,,,,,,,,,,,,,
,,,,,554903,f,y,r,n,11,0,2025-04-03_18h50.40.517,VisualSearchFaces,2024.2.4,MacIntel,116.2790698,,,,,,,,1194.205,1194.3043,1194.3043,1196.3029,block3,f,1,1,19,59,25,1,0,centre,neutral,no_target,0.6415,,,,,,,,,,,,,,,,,
,,,,,554903,f,y,r,n,11,0,2025-04-03_18h50.40.517,VisualSearchFaces,2024.2.4,MacIntel,116.2790698,,,,,,,,1197.3044,1197.4037,1197.4038,1199.4039,block3,j,1,1,20,60,4,1,1,bottom_right,neutral,friendly,0.717,,,,,,,,,,,,,,,,,
,,,,,554903,f,y,r,n,11,0,2025-04-03_18h50.40.517,VisualSearchFaces,2024.2.4,MacIntel,116.2790698,,,,,,,,1200.4051,1200.5039,1200.504,1202.5039,block3,f,1,1,21,61,29,1,0,bottom_right,neutral,no_target,0.6133,,,,,,,,,,,,,,,,,
,,,,,554903,f,y,r,n,11,0,2025-04-03_18h50.40.517,VisualSearchFaces,2024.2.4,MacIntel,116.2790698,,,,,,,,1203.5052,1203.6112,1203.6114,1205.6123,block3,j,1,1,22,62,0,1,1,centre,neutral,friendly,0.8095,,,,,,,,,,,,,,,,,
,,,,,554903,f,y,r,n,11,0,2025-04-03_18h50.40.517,VisualSearchFaces,2024.2.4,MacIntel,116.2790698,,,,,,,,1206.6137,1206.7206,1206.7206,1208.7205,block3,f,1,1,23,63,32,1,0,top_right,friendly,no_target,0.7182,,,,,,,,,,,,,,,,,
,,,,,554903,f,y,r,n,11,0,2025-04-03_18h50.40.517,VisualSearchFaces,2024.2.4,MacIntel,116.2790698,,,,,,,,1209.7223,1209.8285,1209.8285,1211.8289,block3,j,1,1,24,64,9,1,1,bottom_right,neutral,threatening,0.5838,,,,,,,,,,,,,,,,,
,,,,,554903,f,y,r,n,11,0,2025-04-03_18h50.40.517,VisualSearchFaces,2024.2.4,MacIntel,116.2790698,,,,,,,,1212.8303,1212.9371,1212.9373,1214.9372,block3,j,1,1,25,65,6,1,1,top_left,neutral,threatening,0.7424,,,,,,,,,,,,,,,,,
,,,,,554903,f,y,r,n,11,0,2025-04-03_18h50.40.517,VisualSearchFaces,2024.2.4,MacIntel,116.2790698,,,,,,,,1215.9386,1216.0454,1216.0455,1218.0446,block3,f,1,1,26,66,21,1,0,top_left,neutral,no_target,0.7347,,,,,,,,,,,,,,,,,
,,,,,554903,f,y,r,n,11,0,2025-04-03_18h50.40.517,VisualSearchFaces,2024.2.4,MacIntel,116.2790698,,,,,,,,1219.0469,1219.1537,1219.1538,1221.1539,block3,j,1,1,27,67,8,1,1,bottom_left,neutral,threatening,0.5006,,,,,,,,,,,,,,,,,
,,,,,554903,f,y,r,n,11,0,2025-04-03_18h50.40.517,VisualSearchFaces,2024.2.4,MacIntel,116.2790698,,,,,,,,1222.1543,1222.2538,1222.254,1224.2536,block3,j,1,1,28,68,5,1,1,centre,neutral,threatening,0.7158,,,,,,,,,,,,,,,,,
,,,,,554903,f,y,r,n,11,0,2025-04-03_18h50.40.517,VisualSearchFaces,2024.2.4,MacIntel,116.2790698,,,,,,,,1225.2549,1225.3623,1225.3623,1227.3621,block3,j,1,1,29,69,12,1,1,top_right,friendly,neutral,0.6581,,,,,,,,,,,,,,,,,
,,,,,554903,f,y,r,n,11,0,2025-04-03_18h50.40.517,VisualSearchFaces,2024.2.4,MacIntel,116.2790698,,,,,,,,1228.3632,1228.4623,1228.4623,1230.4622,block3,j,0,1,30,70,28,1,0,bottom_left,neutral,no_target,0.9157,,,,,,,,,,,,,,,,,
,,,,,554903,f,y,r,n,11,0,2025-04-03_18h50.40.517,VisualSearchFaces,2024.2.4,MacIntel,116.2790698,,,,,,,,1231.4634,1231.5704,1231.5704,1233.5706,block3,j,1,1,31,71,7,1,1,top_right,neutral,threatening,0.5164,,,,,,,,,,,,,,,,,
,,,,,554903,f,y,r,n,11,0,2025-04-03_18h50.40.517,VisualSearchFaces,2024.2.4,MacIntel,116.2790698,,,,,,,,1234.571,1234.6788,1234.6788,1236.6788,block3,j,1,1,32,72,10,1,1,centre,friendly,neutral,0.4251,,,,,,,,,,,,,,,,,
,,,,,554903,f,y,r,n,11,0,2025-04-03_18h50.40.517,VisualSearchFaces,2024.2.4,MacIntel,116.2790698,,,,,,,,1237.6814,1237.7872,1237.7872,1239.787,block3,j,1,1,33,73,16,1,1,top_left,threatening,neutral,0.5092,,,,,,,,,,,,,,,,,
,,,,,554903,f,y,r,n,11,0,2025-04-03_18h50.40.517,VisualSearchFaces,2024.2.4,MacIntel,116.2790698,,,,,,,,1240.7893,1240.8945,1240.8945,1242.8953,block3,f,1,1,34,74,38,1,0,bottom_left,threatening,no_target,0.626,,,,,,,,,,,,,,,,,
,,,,,554903,f,y,r,n,11,0,2025-04-03_18h50.40.517,VisualSearchFaces,2024.2.4,MacIntel,116.2790698,,,,,,,,1243.8953,1243.9954,1243.9955,1245.9956,block3,f,1,1,35,75,22,1,0,top_right,neutral,no_target,0.6504,,,,,,,,,,,,,,,,,
,,,,,554903,f,y,r,n,11,0,2025-04-03_18h50.40.517,VisualSearchFaces,2024.2.4,MacIntel,116.2790698,,,,,,,,1246.997,1247.1033,1247.1034,1249.1036,block3,f,0,1,36,76,13,1,1,bottom_left,friendly,neutral,1.1089,,,,,,,,,,,,,,,,,
,,,,,554903,f,y,r,n,11,0,2025-04-03_18h50.40.517,VisualSearchFaces,2024.2.4,MacIntel,116.2790698,,,,,,,,1250.1052,1250.2122,1250.2123,1252.212,block3,f,0,1,37,77,18,1,1,bottom_left,threatening,neutral,1.1009,,,,,,,,,,,,,,,,,
,,,,,554903,f,y,r,n,11,0,2025-04-03_18h50.40.517,VisualSearchFaces,2024.2.4,MacIntel,116.2790698,,,,,,,,1253.2133,1253.3204,1253.3204,1255.3201,block3,j,1,1,38,78,14,1,1,bottom_right,friendly,neutral,0.5512,,,,,,,,,,,,,,,,,
,,,,,554903,f,y,r,n,11,0,2025-04-03_18h50.40.517,VisualSearchFaces,2024.2.4,MacIntel,116.2790698,,,,,,,,1256.3215,1256.4285,1256.4286,1258.4285,block3,j,1,1,39,79,11,1,1,top_left,friendly,neutral,0.8171,,,,,,,,,,,,,,,,,
,,,,,554903,f,y,r,n,11,0,2025-04-03_18h50.40.517,VisualSearchFaces,2024.2.4,MacIntel,116.2790698,,,1265.6807,1269.7867,space,4.092,,1270.7874,1270.8871,1270.8871,1272.887,block4,j,1,0,0,0,13,1,1,bottom_left,friendly,neutral,0.6505,,1258.4305,1265.6779,space,7.2343,,,,,,,,,,,,
,,,,,554903,f,y,r,n,11,0,2025-04-03_18h50.40.517,VisualSearchFaces,2024.2.4,MacIntel,116.2790698,,,,,,,,1273.888,1273.9951,1273.9951,1275.995,block4,j,1,0,1,1,10,1,1,centre,friendly,neutral,0.5706,,,,,,,,,,,,,,,,,
,,,,,554903,f,y,r,n,11,0,2025-04-03_18h50.40.517,VisualSearchFaces,2024.2.4,MacIntel,116.2790698,,,,,,,,1276.9963,1277.1028,1277.1028,1279.1032,block4,f,1,0,2,2,26,1,0,top_left,neutral,no_target,0.5267,,,,,,,,,,,,,,,,,
,,,,,554903,f,y,r,n,11,0,2025-04-03_18h50.40.517,VisualSearchFaces,2024.2.4,MacIntel,116.2790698,,,,,,,,1280.1049,1280.2117,1280.2119,1282.2117,block4,f,1,0,3,3,32,1,0,top_right,friendly,no_target,0.6749,,,,,,,,,,,,,,,,,
,,,,,554903,f,y,r,n,11,0,2025-04-03_18h50.40.517,VisualSearchFaces,2024.2.4,MacIntel,116.2790698,,,,,,,,1283.2133,1283.3201,1283.3201,1285.32,block4,f,1,0,4,4,25,1,0,centre,neutral,no_target,0.4993,,,,,,,,,,,,,,,,,
,,,,,554903,f,y,r,n,11,0,2025-04-03_18h50.40.517,VisualSearchFaces,2024.2.4,MacIntel,116.2790698,,,,,,,,1286.3215,1286.4287,1286.4287,1288.4281,block4,f,1,0,5,5,36,1,0,top_left,threatening,no_target,0.8669,,,,,,,,,,,,,,,,,
,,,,,554903,f,y,r,n,11,0,2025-04-03_18h50.40.517,VisualSearchFaces,2024.2.4,MacIntel,116.2790698,,,,,,,,1289.4297,1289.5288,1289.5289,1291.5285,block4,f,1,0,6,6,39,1,0,bottom_right,threatening,no_target,0.5404,,,,,,,,,,,,,,,,,
,,,,,554903,f,y,r,n,11,0,2025-04-03_18h50.40.517,VisualSearchFaces,2024.2.4,MacIntel,116.2790698,,,,,,,,1292.5291,1292.6285,1292.6285,1294.6286,block4,j,1,0,7,7,12,1,1,top_right,friendly,neutral,0.4507,,,,,,,,,,,,,,,,,
,,,,,554903,f,y,r,n,11,0,2025-04-03_18h50.40.517,VisualSearchFaces,2024.2.4,MacIntel,116.2790698,,,,,,,,1295.6299,1295.7368,1295.7368,1297.7368,block4,f,1,0,8,8,37,1,0,top_right,threatening,no_target,0.6973,,,,,,,,,,,,,,,,,
,,,,,554903,f,y,r,n,11,0,2025-04-03_18h50.40.517,VisualSearchFaces,2024.2.4,MacIntel,116.2790698,,,,,,,,1298.7389,1298.8451,1298.8451,1300.8453,block4,j,1,0,9,9,1,1,1,top_left,neutral,friendly,0.8974,,,,,,,,,,,,,,,,,
,,,,,554903,f,y,r,n,11,0,2025-04-03_18h50.40.517,VisualSearchFaces,2024.2.4,MacIntel,116.2790698,,,,,,,,1301.8467,1301.9536,1301.9536,1303.9534,block4,j,1,0,10,10,11,1,1,top_left,friendly,neutral,0.5423,,,,,,,,,,,,,,,,,
,,,,,554903,f,y,r,n,11,0,2025-04-03_18h50.40.517,VisualSearchFaces,2024.2.4,MacIntel,116.2790698,,,,,,,,1304.9549,1305.0616,1305.0617,1307.0616,block4,f,1,0,11,11,27,1,0,top_right,neutral,no_target,0.501,,,,,,,,,,,,,,,,,
,,,,,554903,f,y,r,n,11,0,2025-04-03_18h50.40.517,VisualSearchFaces,2024.2.4,MacIntel,116.2790698,,,,,,,,1308.0632,1308.17,1308.1701,1310.1701,block4,f,1,0,12,12,23,1,0,bottom_left,neutral,no_target,0.5255,,,,,,,,,,,,,,,,,
,,,,,554903,f,y,r,n,11,0,2025-04-03_18h50.40.517,VisualSearchFaces,2024.2.4,MacIntel,116.2790698,,,,,,,,1311.1707,1311.27,1311.2701,1313.2692,block4,j,0,0,13,13,35,1,0,centre,threatening,no_target,1.2344,,,,,,,,,,,,,,,,,
,,,,,554903,f,y,r,n,11,0,2025-04-03_18h50.40.517,VisualSearchFaces,2024.2.4,MacIntel,116.2790698,,,,,,,,1314.271,1314.3782,1314.3782,1316.3775,block4,j,1,0,14,14,8,1,1,bottom_left,neutral,threatening,0.7364,,,,,,,,,,,,,,,,,
,,,,,554903,f,y,r,n,11,0,2025-04-03_18h50.40.517,VisualSearchFaces,2024.2.4,MacIntel,116.2790698,,,,,,,,1317.3806,1317.4867,1317.4868,1319.4866,block4,f,1,0,15,15,20,1,0,centre,neutral,no_target,0.6838,,,,,,,,,,,,,,,,,
,,,,,554903,f,y,r,n,11,0,2025-04-03_18h50.40.517,VisualSearchFaces,2024.2.4,MacIntel,116.2790698,,,,,,,,1320.4881,1320.5866,1320.5866,1322.5866,block4,j,0,0,16,16,33,1,0,bottom_left,friendly,no_target,1.9673,,,,,,,,,,,,,,,,,
,,,,,554903,f,y,r,n,11,0,2025-04-03_18h50.40.517,VisualSearchFaces,2024.2.4,MacIntel,116.2790698,,,,,,,,1323.5878,1323.6941,1323.6941,1325.695,block4,f,1,0,17,17,31,1,0,top_left,friendly,no_target,0.6423,,,,,,,,,,,,,,,,,
,,,,,554903,f,y,r,n,11,0,2025-04-03_18h50.40.517,VisualSearchFaces,2024.2.4,MacIntel,116.2790698,,,,,,,,1326.6971,1326.803,1326.8031,1328.803,block4,j,1,0,18,18,18,1,1,bottom_left,threatening,neutral,0.6246,,,,,,,,,,,,,,,,,
,,,,,554903,f,y,r,n,11,0,2025-04-03_18h50.40.517,VisualSearchFaces,2024.2.4,MacIntel,116.2790698,,,,,,,,1329.8044,1329.9115,1329.9115,1331.9116,block4,j,1,0,19,19,7,1,1,top_right,neutral,threatening,0.618,,,,,,,,,,,,,,,,,
,,,,,554903,f,y,r,n,11,0,2025-04-03_18h50.40.517,VisualSearchFaces,2024.2.4,MacIntel,116.2790698,,,,,,,,1332.913,1333.0199,1333.02,1335.0198,block4,j,1,0,20,20,0,1,1,centre,neutral,friendly,0.493,,,,,,,,,,,,,,,,,
,,,,,554903,f,y,r,n,11,0,2025-04-03_18h50.40.517,VisualSearchFaces,2024.2.4,MacIntel,116.2790698,,,,,,,,1336.0209,1336.1283,1336.1283,1338.1274,block4,j,1,0,21,21,2,1,1,top_right,neutral,friendly,0.4006,,,,,,,,,,,,,,,,,
,,,,,554903,f,y,r,n,11,0,2025-04-03_18h50.40.517,VisualSearchFaces,2024.2.4,MacIntel,116.2790698,,,,,,,,1339.1286,1339.2282,1339.2283,1341.228,block4,f,1,0,22,22,21,1,0,top_left,neutral,no_target,0.5502,,,,,,,,,,,,,,,,,
,,,,,554903,f,y,r,n,11,0,2025-04-03_18h50.40.517,VisualSearchFaces,2024.2.4,MacIntel,116.2790698,,,,,,,,1342.2297,1342.3364,1342.3365,1344.3356,block4,f,1,0,23,23,22,1,0,top_right,neutral,no_target,0.5009,,,,,,,,,,,,,,,,,
,,,,,554903,f,y,r,n,11,0,2025-04-03_18h50.40.517,VisualSearchFaces,2024.2.4,MacIntel,116.2790698,,,,,,,,1345.3377,1345.4448,1345.4448,1347.444,block4,j,1,0,24,24,6,1,1,top_left,neutral,threatening,0.5864,,,,,,,,,,,,,,,,,
,,,,,554903,f,y,r,n,11,0,2025-04-03_18h50.40.517,VisualSearchFaces,2024.2.4,MacIntel,116.2790698,,,,,,,,1348.4466,1348.5531,1348.5531,1350.553,block4,j,1,0,25,25,15,1,1,centre,threatening,neutral,0.4336,,,,,,,,,,,,,,,,,
,,,,,554903,f,y,r,n,11,0,2025-04-03_18h50.40.517,VisualSearchFaces,2024.2.4,MacIntel,116.2790698,,,,,,,,1351.5557,1351.6615,1351.6615,1353.6611,block4,j,1,0,26,26,9,1,1,bottom_right,neutral,threatening,0.4093,,,,,,,,,,,,,,,,,
,,,,,554903,f,y,r,n,11,0,2025-04-03_18h50.40.517,VisualSearchFaces,2024.2.4,MacIntel,116.2790698,,,,,,,,1354.6626,1354.7701,1354.7702,1356.7697,block4,f,1,0,27,27,24,1,0,bottom_right,neutral,no_target,0.394,,,,,,,,,,,,,,,,,
,,,,,554903,f,y,r,n,11,0,2025-04-03_18h50.40.517,VisualSearchFaces,2024.2.4,MacIntel,116.2790698,,,,,,,,1357.7708,1357.878,1357.8781,1359.878,block4,j,1,0,28,28,17,1,1,top_right,threatening,neutral,0.576,,,,,,,,,,,,,,,,,
,,,,,554903,f,y,r,n,11,0,2025-04-03_18h50.40.517,VisualSearchFaces,2024.2.4,MacIntel,116.2790698,,,,,,,,1360.8794,1360.9865,1360.9865,1362.9856,block4,f,1,0,29,29,28,1,0,bottom_left,neutral,no_target,0.4084,,,,,,,,,,,,,,,,,
,,,,,554903,f,y,r,n,11,0,2025-04-03_18h50.40.517,VisualSearchFaces,2024.2.4,MacIntel,116.2790698,,,,,,,,1363.9876,1364.0948,1364.0949,1366.0947,block4,j,1,0,30,30,16,1,1,top_left,threatening,neutral,0.4431,,,,,,,,,,,,,,,,,
,,,,,554903,f,y,r,n,11,0,2025-04-03_18h50.40.517,VisualSearchFaces,2024.2.4,MacIntel,116.2790698,,,,,,,,1367.0962,1367.203,1367.203,1369.2023,block4,j,1,0,31,31,5,1,1,centre,neutral,threatening,0.4416,,,,,,,,,,,,,,,,,
,,,,,554903,f,y,r,n,11,0,2025-04-03_18h50.40.517,VisualSearchFaces,2024.2.4,MacIntel,116.2790698,,,,,,,,1370.2049,1370.3105,1370.3105,1372.3113,block4,f,1,0,32,32,29,1,0,bottom_right,neutral,no_target,0.5178,,,,,,,,,,,,,,,,,
,,,,,554903,f,y,r,n,11,0,2025-04-03_18h50.40.517,VisualSearchFaces,2024.2.4,MacIntel,116.2790698,,,,,,,,1373.3127,1373.4198,1373.4199,1375.4196,block4,f,1,0,33,33,30,1,0,centre,friendly,no_target,0.7823,,,,,,,,,,,,,,,,,
,,,,,554903,f,y,r,n,11,0,2025-04-03_18h50.40.517,VisualSearchFaces,2024.2.4,MacIntel,116.2790698,,,,,,,,1376.4208,1376.5271,1376.5271,1378.5281,block4,j,1,0,34,34,3,1,1,bottom_left,neutral,friendly,0.4673,,,,,,,,,,,,,,,,,
,,,,,554903,f,y,r,n,11,0,2025-04-03_18h50.40.517,VisualSearchFaces,2024.2.4,MacIntel,116.2790698,,,,,,,,1379.529,1379.636,1379.636,1381.6363,block4,j,1,0,35,35,19,1,1,bottom_right,threatening,neutral,0.8348,,,,,,,,,,,,,,,,,
,,,,,554903,f,y,r,n,11,0,2025-04-03_18h50.40.517,VisualSearchFaces,2024.2.4,MacIntel,116.2790698,,,,,,,,1382.6387,1382.7442,1382.7443,1384.7448,block4,f,1,0,36,36,38,1,0,bottom_left,threatening,no_target,0.5608,,,,,,,,,,,,,,,,,
,,,,,554903,f,y,r,n,11,0,2025-04-03_18h50.40.517,VisualSearchFaces,2024.2.4,MacIntel,116.2790698,,,,,,,,1385.7459,1385.853,1385.8531,1387.8529,block4,j,1,0,37,37,4,1,1,bottom_right,neutral,friendly,0.5874,,,,,,,,,,,,,,,,,
,,,,,554903,f,y,r,n,11,0,2025-04-03_18h50.40.517,VisualSearchFaces,2024.2.4,MacIntel,116.2790698,,,,,,,,1388.8541,1388.9529,1388.9529,1390.9522,block4,j,1,0,38,38,14,1,1,bottom_right,friendly,neutral,0.5518,,,,,,,,,,,,,,,,,
,,,,,554903,f,y,r,n,11,0,2025-04-03_18h50.40.517,VisualSearchFaces,2024.2.4,MacIntel,116.2790698,,,,,,,,1391.9543,1392.061,1392.0612,1394.0602,block4,f,1,0,39,39,34,1,0,bottom_right,friendly,no_target,0.5659,,,,,,,,,,,,,,,,,
,,,,,554903,f,y,r,n,11,0,2025-04-03_18h50.40.517,VisualSearchFaces,2024.2.4,MacIntel,116.2790698,,,,,,,,1395.0628,1395.1697,1395.1698,1397.1695,block4,f,1,1,0,40,22,1,0,top_right,neutral,no_target,0.5884,,,,,,,,,,,,,,,,,
,,,,,554903,f,y,r,n,11,0,2025-04-03_18h50.40.517,VisualSearchFaces,2024.2.4,MacIntel,116.2790698,,,,,,,,1398.171,1398.2769,1398.277,1400.2779,block4,j,1,1,1,41,5,1,1,centre,neutral,threatening,0.721,,,,,,,,,,,,,,,,,
,,,,,554903,f,y,r,n,11,0,2025-04-03_18h50.40.517,VisualSearchFaces,2024.2.4,MacIntel,116.2790698,,,,,,,,1401.2789,1401.3863,1401.3863,1403.3862,block4,f,1,1,2,42,31,1,0,top_left,friendly,no_target,0.529,,,,,,,,,,,,,,,,,
,,,,,554903,f,y,r,n,11,0,2025-04-03_18h50.40.517,VisualSearchFaces,2024.2.4,MacIntel,116.2790698,,,,,,,,1404.3873,1404.4946,1404.4946,1406.4945,block4,f,1,1,3,43,23,1,0,bottom_left,neutral,no_target,0.4504,,,,,,,,,,,,,,,,,
,,,,,554903,f,y,r,n,11,0,2025-04-03_18h50.40.517,VisualSearchFaces,2024.2.4,MacIntel,116.2790698,,,,,,,,1407.4957,1407.6028,1407.6029,1409.6027,block4,f,1,1,4,44,39,1,0,bottom_right,threatening,no_target,0.8203,,,,,,,,,,,,,,,,,
,,,,,554903,f,y,r,n,11,0,2025-04-03_18h50.40.517,VisualSearchFaces,2024.2.4,MacIntel,116.2790698,,,,,,,,1410.6041,1410.703,1410.7031,1412.7018,block4,j,1,1,5,45,12,1,1,top_right,friendly,neutral,0.574,,,,,,,,,,,,,,,,,
,,,,,554903,f,y,r,n,11,0,2025-04-03_18h50.40.517,VisualSearchFaces,2024.2.4,MacIntel,116.2790698,,,,,,,,1413.7033,1413.8028,1413.8028,1415.8019,block4,j,1,1,6,46,13,1,1,bottom_left,friendly,neutral,0.754,,,,,,,,,,,,,,,,,
,,,,,554903,f,y,r,n,11,0,2025-04-03_18h50.40.517,VisualSearchFaces,2024.2.4,MacIntel,116.2790698,,,,,,,,1416.8041,1416.9103,1416.9104,1418.9111,block4,f,1,1,7,47,27,1,0,top_right,neutral,no_target,1.6184,,,,,,,,,,,,,,,,,
,,,,,554903,f,y,r,n,11,0,2025-04-03_18h50.40.517,VisualSearchFaces,2024.2.4,MacIntel,116.2790698,,,,,,,,1419.9129,1420.0193,1420.0194,1422.0194,block4,j,1,1,8,48,19,1,1,bottom_right,threatening,neutral,1.0272,,,,,,,,,,,,,,,,,
,,,,,554903,f,y,r,n,11,0,2025-04-03_18h50.40.517,VisualSearchFaces,2024.2.4,MacIntel,116.2790698,,,,,,,,1423.021,1423.1279,1423.128,1425.1276,block4,f,1,1,9,49,28,1,0,bottom_left,neutral,no_target,0.8078,,,,,,,,,,,,,,,,,
,,,,,554903,f,y,r,n,11,0,2025-04-03_18h50.40.517,VisualSearchFaces,2024.2.4,MacIntel,116.2790698,,,,,,,,1426.1289,1426.2356,1426.2356,1428.236,block4,f,0,1,10,50,18,1,1,bottom_left,threatening,neutral,1.0344,,,,,,,,,,,,,,,,,
,,,,,554903,f,y,r,n,11,0,2025-04-03_18h50.40.517,VisualSearchFaces,2024.2.4,MacIntel,116.2790698,,,,,,,,1429.2366,1429.3361,1429.3361,1431.336,block4,j,1,1,11,51,6,1,1,top_left,neutral,threatening,0.7169,,,,,,,,,,,,,,,,,
,,,,,554903,f,y,r,n,11,0,2025-04-03_18h50.40.517,VisualSearchFaces,2024.2.4,MacIntel,116.2790698,,,,,,,,1432.3367,1432.4362,1432.4362,1434.4358,block4,j,1,1,12,52,15,1,1,centre,threatening,neutral,1.1758,,,,,,,,,,,,,,,,,
,,,,,554903,f,y,r,n,11,0,2025-04-03_18h50.40.517,VisualSearchFaces,2024.2.4,MacIntel,116.2790698,,,,,,,,1435.4373,1435.5443,1435.5444,1437.5443,block4,f,1,1,13,53,35,1,0,centre,threatening,no_target,0.5337,,,,,,,,,,,,,,,,,
,,,,,554903,f,y,r,n,11,0,2025-04-03_18h50.40.517,VisualSearchFaces,2024.2.4,MacIntel,116.2790698,,,,,,,,1438.5469,1438.6527,1438.6527,1440.6528,block4,j,1,1,14,54,9,1,1,bottom_right,neutral,threatening,0.6335,,,,,,,,,,,,,,,,,
,,,,,554903,f,y,r,n,11,0,2025-04-03_18h50.40.517,VisualSearchFaces,2024.2.4,MacIntel,116.2790698,,,,,,,,1441.6538,1441.7609,1441.7609,1443.761,block4,f,1,1,15,55,32,1,0,top_right,friendly,no_target,0.5516,,,,,,,,,,,,,,,,,
,,,,,554903,f,y,r,n,11,0,2025-04-03_18h50.40.517,VisualSearchFaces,2024.2.4,MacIntel,116.2790698,,,,,,,,1444.7625,1444.8684,1444.8685,1446.8692,block4,f,1,1,16,56,20,1,0,centre,neutral,no_target,0.5889,,,,,,,,,,,,,,,,,
,,,,,554903,f,y,r,n,11,0,2025-04-03_18h50.40.517,VisualSearchFaces,2024.2.4,MacIntel,116.2790698,,,,,,,,1447.8718,1447.9776,1447.9776,1449.9777,block4,f,1,1,17,57,37,1,0,top_right,threatening,no_target,1.2193,,,,,,,,,,,,,,,,,
,,,,,554903,f,y,r,n,11,0,2025-04-03_18h50.40.517,VisualSearchFaces,2024.2.4,MacIntel,116.2790698,,,,,,,,1450.9792,1451.0851,1451.0852,1453.0858,block4,f,1,1,18,58,33,1,0,bottom_left,friendly,no_target,0.5615,,,,,,,,,,,,,,,,,
,,,,,554903,f,y,r,n,11,0,2025-04-03_18h50.40.517,VisualSearchFaces,2024.2.4,MacIntel,116.2790698,,,,,,,,1454.0872,1454.1944,1454.1945,1456.1936,block4,j,1,1,19,59,0,1,1,centre,neutral,friendly,0.5848,,,,,,,,,,,,,,,,,
,,,,,554903,f,y,r,n,11,0,2025-04-03_18h50.40.517,VisualSearchFaces,2024.2.4,MacIntel,116.2790698,,,,,,,,1457.1957,1457.3026,1457.3027,1459.3018,block4,f,1,1,20,60,29,1,0,bottom_right,neutral,no_target,1.2742,,,,,,,,,,,,,,,,,
,,,,,554903,f,y,r,n,11,0,2025-04-03_18h50.40.517,VisualSearchFaces,2024.2.4,MacIntel,116.2790698,,,,,,,,1460.3039,1460.4107,1460.4108,1462.4108,block4,j,1,1,21,61,16,1,1,top_left,threatening,neutral,0.7088,,,,,,,,,,,,,,,,,
,,,,,554903,f,y,r,n,11,0,2025-04-03_18h50.40.517,VisualSearchFaces,2024.2.4,MacIntel,116.2790698,,,,,,,,1463.4133,1463.519,1463.5191,1465.5191,block4,j,1,1,22,62,11,1,1,top_left,friendly,neutral,0.5295,,,,,,,,,,,,,,,,,
,,,,,554903,f,y,r,n,11,0,2025-04-03_18h50.40.517,VisualSearchFaces,2024.2.4,MacIntel,116.2790698,,,,,,,,1466.5198,1466.6191,1466.6192,1468.6191,block4,f,1,1,23,63,36,1,0,top_left,threatening,no_target,0.7779,,,,,,,,,,,,,,,,,
,,,,,554903,f,y,r,n,11,0,2025-04-03_18h50.40.517,VisualSearchFaces,2024.2.4,MacIntel,116.2790698,,,,,,,,1469.6207,1469.7276,1469.7276,1471.7273,block4,j,1,1,24,64,7,1,1,top_right,neutral,threatening,0.6037,,,,,,,,,,,,,,,,,
,,,,,554903,f,y,r,n,11,0,2025-04-03_18h50.40.517,VisualSearchFaces,2024.2.4,MacIntel,116.2790698,,,,,,,,1472.7287,1472.8356,1472.8358,1474.8356,block4,f,1,1,25,65,21,1,0,top_left,neutral,no_target,0.5581,,,,,,,,,,,,,,,,,
,,,,,554903,f,y,r,n,11,0,2025-04-03_18h50.40.517,VisualSearchFaces,2024.2.4,MacIntel,116.2790698,,,,,,,,1475.8374,1475.944,1475.9441,1477.9434,block4,j,1,1,26,66,3,1,1,bottom_left,neutral,friendly,0.5448,,,,,,,,,,,,,,,,,
,,,,,554903,f,y,r,n,11,0,2025-04-03_18h50.40.517,VisualSearchFaces,2024.2.4,MacIntel,116.2790698,,,,,,,,1478.9454,1479.0525,1479.0525,1481.0525,block4,j,1,1,27,67,14,1,1,bottom_right,friendly,neutral,0.5761,,,,,,,,,,,,,,,,,
,,,,,554903,f,y,r,n,11,0,2025-04-03_18h50.40.517,VisualSearchFaces,2024.2.4,MacIntel,116.2790698,,,,,,,,1482.0536,1482.1609,1482.1611,1484.1606,block4,f,1,1,28,68,34,1,0,bottom_right,friendly,no_target,0.5759,,,,,,,,,,,,,,,,,
,,,,,554903,f,y,r,n,11,0,2025-04-03_18h50.40.517,VisualSearchFaces,2024.2.4,MacIntel,116.2790698,,,,,,,,1485.1618,1485.2609,1485.261,1487.2605,block4,j,1,1,29,69,17,1,1,top_right,threatening,neutral,0.5989,,,,,,,,,,,,,,,,,
,,,,,554903,f,y,r,n,11,0,2025-04-03_18h50.40.517,VisualSearchFaces,2024.2.4,MacIntel,116.2790698,,,,,,,,1488.2621,1488.368,1488.368,1490.3688,block4,f,1,1,30,70,24,1,0,bottom_right,neutral,no_target,0.5049,,,,,,,,,,,,,,,,,
,,,,,554903,f,y,r,n,11,0,2025-04-03_18h50.40.517,VisualSearchFaces,2024.2.4,MacIntel,116.2790698,,,,,,,,1491.3697,1491.469,1491.4691,1493.4691,block4,f,1,1,31,71,26,1,0,top_left,neutral,no_target,1.1501,,,,,,,,,,,,,,,,,
,,,,,554903,f,y,r,n,11,0,2025-04-03_18h50.40.517,VisualSearchFaces,2024.2.4,MacIntel,116.2790698,,,,,,,,1494.4695,1494.5692,1494.5693,1496.5687,block4,j,1,1,32,72,4,1,1,bottom_right,neutral,friendly,0.6572,,,,,,,,,,,,,,,,,
,,,,,554903,f,y,r,n,11,0,2025-04-03_18h50.40.517,VisualSearchFaces,2024.2.4,MacIntel,116.2790698,,,,,,,,1497.5704,1497.6773,1497.6774,1499.6776,block4,f,0,1,33,73,1,1,1,top_left,neutral,friendly,0.5755,,,,,,,,,,,,,,,,,
,,,,,554903,f,y,r,n,11,0,2025-04-03_18h50.40.517,VisualSearchFaces,2024.2.4,MacIntel,116.2790698,,,,,,,,1500.6782,1500.7776,1500.7776,1502.7762,block4,f,1,1,34,74,30,1,0,centre,friendly,no_target,0.907,,,,,,,,,,,,,,,,,
,,,,,554903,f,y,r,n,11,0,2025-04-03_18h50.40.517,VisualSearchFaces,2024.2.4,MacIntel,116.2790698,,,,,,,,1503.7779,1503.8774,1503.8775,1505.8771,block4,f,0,1,35,75,10,1,1,centre,friendly,neutral,1.1249,,,,,,,,,,,,,,,,,
,,,,,554903,f,y,r,n,11,0,2025-04-03_18h50.40.517,VisualSearchFaces,2024.2.4,MacIntel,116.2790698,,,,,,,,1506.8787,1506.9856,1506.9856,1508.9855,block4,f,1,1,36,76,38,1,0,bottom_left,threatening,no_target,1.0755,,,,,,,,,,,,,,,,,
,,,,,554903,f,y,r,n,11,0,2025-04-03_18h50.40.517,VisualSearchFaces,2024.2.4,MacIntel,116.2790698,,,,,,,,1509.9881,1510.0939,1510.094,1512.094,block4,j,1,1,37,77,2,1,1,top_right,neutral,friendly,0.5581,,,,,,,,,,,,,,,,,
,,,,,554903,f,y,r,n,11,0,2025-04-03_18h50.40.517,VisualSearchFaces,2024.2.4,MacIntel,116.2790698,,,,,,,,1513.095,1513.1942,1513.1943,1515.1939,block4,j,1,1,38,78,8,1,1,bottom_left,neutral,threatening,0.6084,,,,,,,,,,,,,,,,,
,,,,,554903,f,y,r,n,11,0,2025-04-03_18h50.40.517,VisualSearchFaces,2024.2.4,MacIntel,116.2790698,,,,,,,,1516.195,1516.3024,1516.3024,1518.3024,block4,f,1,1,39,79,25,1,0,centre,neutral,no_target,0.7342,,,,,,,,,,,,,,,,,
,,,,,554903,f,y,r,n,11,0,2025-04-03_18h50.40.517,VisualSearchFaces,2024.2.4,MacIntel,116.2790698,,,,,,,,,,,,,,,,,,,,,,,,,,1518.305,1524.3691,space,6.049,,1524.37,1604.3359,"They're faces, but very basic emotions, the way you'd draw faces inside emojis.  ",1,[1604.3352000000177],[1604.3352000000177],,,,,
,,,,,554903,f,y,r,n,11,0,2025-04-03_18h50.40.517,VisualSearchFaces,2024.2.4,MacIntel,116.2790698,,,,,,,,,,,,,,,,,,,,,,,,,,,,,,,,,,,,,1604.3362,1606.2276,space,1.8777,
