Welcome.started,Welcome.stopped,keyboard_space_welcome.keys,keyboard_space_welcome.rt,keyboard_space_welcome.duration,participant,gender,(corrected) normal vision,handedness,exp vse,session,skip_intro,date,expName,psychopyVersion,OS,frameRate,stimulus_exposure.started,stimulus_exposure.stopped,Block_intro.started,Block_intro.stopped,keyboard_space.keys,keyboard_space.rt,keyboard_space.duration,Stimulus.started,Stimulus.stopped,fixation_ending.started,fixation_ending.stopped,block_id,keyboard_response.keys,keyboard_response.corr,trials.thisRepN,trials.thisTrialN,trials.thisN,trials.thisIndex,trials.ran,target_presence,target_position,background_emotion,target_emotion,keyboard_response.rt,keyboard_response.duration,Block_outro.started,Block_outro.stopped,keyboard_space_end.keys,keyboard_space_end.rt,keyboard_space_end.duration,Question_about_stimulus.started,Question_about_stimulus.stopped,textbox_response.text,button.numClicks,button.timesOn,button.timesOff,Thanks.started,Thanks.stopped,keyboard_space_goodbye.keys,keyboard_space_goodbye.rt,keyboard_space_goodbye.duration
0.0001,61.3511,space,61.2927,,612967,m,y,r,n,14,0,2025-04-01_21h16.34.741,VisualSearchFaces,2024.2.4,Win32,60.24096386,,,,,,,,,,,,,,,,,,,,,,,,,,,,,,,,,,,,,,,,,
,,,,,612967,m,y,r,n,14,0,2025-04-01_21h16.34.741,VisualSearchFaces,2024.2.4,Win32,60.24096386,82.4544,85.4673,85.4831,133.8181,space,48.301,,134.8218,135.078,135.0781,137.0785,practice1,,0,0,0,0,20,1,0,centre,neutral,no_target,,,,,,,,,,,,,,,,,,
,,,,,612967,m,y,r,n,14,0,2025-04-01_21h16.34.741,VisualSearchFaces,2024.2.4,Win32,60.24096386,,,,,,,,138.085,138.3372,138.3373,140.3305,practice1,,0,0,1,1,35,1,0,centre,threatening,no_target,,,,,,,,,,,,,,,,,,
,,,,,612967,m,y,r,n,14,0,2025-04-01_21h16.34.741,VisualSearchFaces,2024.2.4,Win32,60.24096386,,,,,,,,141.3427,141.5988,141.5988,143.5976,practice1,f,1,0,2,2,27,1,0,top_right,neutral,no_target,0.9153,,,,,,,,,,,,,,,,,
,,,,,612967,m,y,r,n,14,0,2025-04-01_21h16.34.741,VisualSearchFaces,2024.2.4,Win32,60.24096386,,,,,,,,144.5907,144.8497,144.8501,146.8469,practice1,f,1,0,3,3,28,1,0,bottom_left,neutral,no_target,0.8063,,,,,,,,,,,,,,,,,
,,,,,612967,m,y,r,n,14,0,2025-04-01_21h16.34.741,VisualSearchFaces,2024.2.4,Win32,60.24096386,,,,,,,,147.8543,148.1128,148.113,150.116,practice1,j,1,0,4,4,3,1,1,bottom_left,neutral,friendly,0.6833,,,,,,,,,,,,,,,,,
,,,,,612967,m,y,r,n,14,0,2025-04-01_21h16.34.741,VisualSearchFaces,2024.2.4,Win32,60.24096386,,,,,,,,151.1147,151.3655,151.3655,153.366,practice1,j,1,0,5,5,10,1,1,centre,friendly,neutral,0.7861,,,,,,,,,,,,,,,,,
,,,,,612967,m,y,r,n,14,0,2025-04-01_21h16.34.741,VisualSearchFaces,2024.2.4,Win32,60.24096386,,,,,,,,154.3708,154.616,154.6161,156.6155,practice1,j,1,0,6,6,5,1,1,centre,neutral,threatening,0.5935,,,,,,,,,,,,,,,,,
,,,,,612967,m,y,r,n,14,0,2025-04-01_21h16.34.741,VisualSearchFaces,2024.2.4,Win32,60.24096386,,,,,,,,157.6212,157.8667,157.8669,159.8657,practice1,j,1,0,7,7,7,1,1,top_right,neutral,threatening,0.5167,,,,,,,,,,,,,,,,,
,,,,,612967,m,y,r,n,14,0,2025-04-01_21h16.34.741,VisualSearchFaces,2024.2.4,Win32,60.24096386,,,,,,,,160.8664,161.1162,161.1162,163.1151,practice1,j,0,0,8,8,22,1,0,top_right,neutral,no_target,1.0835,,,,,,,,,,,,,,,,,
,,,,,612967,m,y,r,n,14,0,2025-04-01_21h16.34.741,VisualSearchFaces,2024.2.4,Win32,60.24096386,,,,,,,,164.1203,164.3778,164.3779,166.3768,practice1,f,1,0,9,9,33,1,0,bottom_left,friendly,no_target,0.9362,,,,,,,,,,,,,,,,,
,,,,,612967,m,y,r,n,14,0,2025-04-01_21h16.34.741,VisualSearchFaces,2024.2.4,Win32,60.24096386,,,,,,,,167.3734,167.6296,167.6297,169.6284,practice1,j,1,0,10,10,4,1,1,bottom_right,neutral,friendly,0.6524,,,,,,,,,,,,,,,,,
,,,,,612967,m,y,r,n,14,0,2025-04-01_21h16.34.741,VisualSearchFaces,2024.2.4,Win32,60.24096386,,,,,,,,170.6354,170.8934,170.8935,172.893,practice1,f,1,0,11,11,23,1,0,bottom_left,neutral,no_target,1.0469,,,,,,,,,,,,,,,,,
,,,,,612967,m,y,r,n,14,0,2025-04-01_21h16.34.741,VisualSearchFaces,2024.2.4,Win32,60.24096386,,,,,,,,173.8995,174.1484,174.1484,176.1527,practice1,j,1,0,12,12,17,1,1,top_right,threatening,neutral,0.8705,,,,,,,,,,,,,,,,,
,,,,,612967,m,y,r,n,14,0,2025-04-01_21h16.34.741,VisualSearchFaces,2024.2.4,Win32,60.24096386,,,,,,,,177.1558,177.4036,177.4037,179.3957,practice1,j,1,0,13,13,6,1,1,top_left,neutral,threatening,0.6222,,,,,,,,,,,,,,,,,
,,,,,612967,m,y,r,n,14,0,2025-04-01_21h16.34.741,VisualSearchFaces,2024.2.4,Win32,60.24096386,,,,,,,,180.3996,180.6468,180.6469,182.6484,practice1,j,0,0,14,14,36,1,0,top_left,threatening,no_target,1.6328,,,,,,,,,,,,,,,,,
,,,,,612967,m,y,r,n,14,0,2025-04-01_21h16.34.741,VisualSearchFaces,2024.2.4,Win32,60.24096386,,,,,,,,183.6349,183.8956,183.8959,185.8954,practice1,f,1,0,15,15,24,1,0,bottom_right,neutral,no_target,0.8393,,,,,,,,,,,,,,,,,
,,,,,612967,m,y,r,n,14,0,2025-04-01_21h16.34.741,VisualSearchFaces,2024.2.4,Win32,60.24096386,,,,,,,,186.9006,187.1619,187.1619,189.1599,practice1,j,0,0,16,16,37,1,0,top_right,threatening,no_target,1.4952,,,,,,,,,,,,,,,,,
,,,,,612967,m,y,r,n,14,0,2025-04-01_21h16.34.741,VisualSearchFaces,2024.2.4,Win32,60.24096386,,,,,,,,190.1669,190.4198,190.4199,192.4111,practice1,f,1,0,17,17,26,1,0,top_left,neutral,no_target,0.779,,,,,,,,,,,,,,,,,
,,,,,612967,m,y,r,n,14,0,2025-04-01_21h16.34.741,VisualSearchFaces,2024.2.4,Win32,60.24096386,,,,,,,,193.4191,193.6729,193.6729,195.6701,practice1,j,1,0,18,18,0,1,1,centre,neutral,friendly,0.5284,,,,,,,,,,,,,,,,,
,,,,,612967,m,y,r,n,14,0,2025-04-01_21h16.34.741,VisualSearchFaces,2024.2.4,Win32,60.24096386,,,,,,,,196.6878,196.9504,196.9504,198.9492,practice1,j,1,0,19,19,15,1,1,centre,threatening,neutral,0.5623,,,,,,,,,,,,,,,,,
,,,,,612967,m,y,r,n,14,0,2025-04-01_21h16.34.741,VisualSearchFaces,2024.2.4,Win32,60.24096386,,,,,,,,199.9551,200.2029,200.203,202.1788,practice1,j,0,0,20,20,34,1,0,bottom_right,friendly,no_target,1.7292,,,,,,,,,,,,,,,,,
,,,,,612967,m,y,r,n,14,0,2025-04-01_21h16.34.741,VisualSearchFaces,2024.2.4,Win32,60.24096386,,,,,,,,203.197,203.4532,203.4532,205.453,practice1,j,1,0,21,21,1,1,1,top_left,neutral,friendly,0.4753,,,,,,,,,,,,,,,,,
,,,,,612967,m,y,r,n,14,0,2025-04-01_21h16.34.741,VisualSearchFaces,2024.2.4,Win32,60.24096386,,,,,,,,206.4465,206.6986,206.6987,208.6989,practice1,j,1,0,22,22,13,1,1,bottom_left,friendly,neutral,1.3011,,,,,,,,,,,,,,,,,
,,,,,612967,m,y,r,n,14,0,2025-04-01_21h16.34.741,VisualSearchFaces,2024.2.4,Win32,60.24096386,,,,,,,,209.6892,209.9491,209.9493,211.9309,practice1,j,1,0,23,23,11,1,1,top_left,friendly,neutral,1.2196,,,,,,,,,,,,,,,,,
,,,,,612967,m,y,r,n,14,0,2025-04-01_21h16.34.741,VisualSearchFaces,2024.2.4,Win32,60.24096386,,,,,,,,212.9627,213.2129,213.2132,215.2102,practice1,j,1,0,24,24,18,1,1,bottom_left,threatening,neutral,1.2927,,,,,,,,,,,,,,,,,
,,,,,612967,m,y,r,n,14,0,2025-04-01_21h16.34.741,VisualSearchFaces,2024.2.4,Win32,60.24096386,,,,,,,,216.2213,216.4715,216.4716,218.4646,practice1,f,1,0,25,25,21,1,0,top_left,neutral,no_target,0.7562,,,,,,,,,,,,,,,,,
,,,,,612967,m,y,r,n,14,0,2025-04-01_21h16.34.741,VisualSearchFaces,2024.2.4,Win32,60.24096386,,,,,,,,219.4697,219.7382,219.7382,221.7336,practice1,j,1,0,26,26,19,1,1,bottom_right,threatening,neutral,0.8266,,,,,,,,,,,,,,,,,
,,,,,612967,m,y,r,n,14,0,2025-04-01_21h16.34.741,VisualSearchFaces,2024.2.4,Win32,60.24096386,,,,,,,,222.7478,222.9984,222.9985,224.9934,practice1,f,1,0,27,27,38,1,0,bottom_left,threatening,no_target,1.0047,,,,,,,,,,,,,,,,,
,,,,,612967,m,y,r,n,14,0,2025-04-01_21h16.34.741,VisualSearchFaces,2024.2.4,Win32,60.24096386,,,,,,,,225.9918,226.241,226.241,228.2425,practice1,f,1,0,28,28,30,1,0,centre,friendly,no_target,1.3877,,,,,,,,,,,,,,,,,
,,,,,612967,m,y,r,n,14,0,2025-04-01_21h16.34.741,VisualSearchFaces,2024.2.4,Win32,60.24096386,,,,,,,,229.2358,229.4878,229.4879,231.4814,practice1,j,1,0,29,29,9,1,1,bottom_right,neutral,threatening,1.4797,,,,,,,,,,,,,,,,,
,,,,,612967,m,y,r,n,14,0,2025-04-01_21h16.34.741,VisualSearchFaces,2024.2.4,Win32,60.24096386,,,,,,,,232.4866,232.7326,232.7326,234.7313,practice1,j,1,0,30,30,8,1,1,bottom_left,neutral,threatening,0.4827,,,,,,,,,,,,,,,,,
,,,,,612967,m,y,r,n,14,0,2025-04-01_21h16.34.741,VisualSearchFaces,2024.2.4,Win32,60.24096386,,,,,,,,235.7345,235.9812,235.9812,237.9814,practice1,f,1,0,31,31,31,1,0,top_left,friendly,no_target,0.9046,,,,,,,,,,,,,,,,,
,,,,,612967,m,y,r,n,14,0,2025-04-01_21h16.34.741,VisualSearchFaces,2024.2.4,Win32,60.24096386,,,,,,,,238.9848,239.2367,239.2368,241.2285,practice1,j,1,0,32,32,16,1,1,top_left,threatening,neutral,0.7129,,,,,,,,,,,,,,,,,
,,,,,612967,m,y,r,n,14,0,2025-04-01_21h16.34.741,VisualSearchFaces,2024.2.4,Win32,60.24096386,,,,,,,,242.2355,242.4989,242.499,244.4926,practice1,f,1,0,33,33,39,1,0,bottom_right,threatening,no_target,1.6311,,,,,,,,,,,,,,,,,
,,,,,612967,m,y,r,n,14,0,2025-04-01_21h16.34.741,VisualSearchFaces,2024.2.4,Win32,60.24096386,,,,,,,,245.5116,245.7707,245.7708,247.7607,practice1,f,1,0,34,34,32,1,0,top_right,friendly,no_target,1.0732,,,,,,,,,,,,,,,,,
,,,,,612967,m,y,r,n,14,0,2025-04-01_21h16.34.741,VisualSearchFaces,2024.2.4,Win32,60.24096386,,,,,,,,248.7663,249.0183,249.0184,251.0146,practice1,f,1,0,35,35,29,1,0,bottom_right,neutral,no_target,0.8308,,,,,,,,,,,,,,,,,
,,,,,612967,m,y,r,n,14,0,2025-04-01_21h16.34.741,VisualSearchFaces,2024.2.4,Win32,60.24096386,,,,,,,,252.0195,252.2776,252.2776,254.28,practice1,j,1,0,36,36,14,1,1,bottom_right,friendly,neutral,0.8607,,,,,,,,,,,,,,,,,
,,,,,612967,m,y,r,n,14,0,2025-04-01_21h16.34.741,VisualSearchFaces,2024.2.4,Win32,60.24096386,,,,,,,,255.286,255.5392,255.5392,257.543,practice1,j,1,0,37,37,2,1,1,top_right,neutral,friendly,0.5252,,,,,,,,,,,,,,,,,
,,,,,612967,m,y,r,n,14,0,2025-04-01_21h16.34.741,VisualSearchFaces,2024.2.4,Win32,60.24096386,,,,,,,,258.5457,258.7934,258.7935,260.7926,practice1,j,1,0,38,38,12,1,1,top_right,friendly,neutral,0.6028,,,,,,,,,,,,,,,,,
,,,,,612967,m,y,r,n,14,0,2025-04-01_21h16.34.741,VisualSearchFaces,2024.2.4,Win32,60.24096386,,,,,,,,261.8036,262.0607,262.0614,264.065,practice1,f,1,0,39,39,25,1,0,centre,neutral,no_target,0.6434,,,,,,,,,,,,,,,,,
,,,,,612967,m,y,r,n,14,0,2025-04-01_21h16.34.741,VisualSearchFaces,2024.2.4,Win32,60.24096386,,,278.7843,290.0992,space,11.2464,,291.1082,291.2014,291.2015,293.1935,practice2,j,0,0,0,0,36,1,0,top_left,threatening,no_target,0.5806,,264.0664,278.7762,space,14.6757,,,,,,,,,,,,
,,,,,612967,m,y,r,n,14,0,2025-04-01_21h16.34.741,VisualSearchFaces,2024.2.4,Win32,60.24096386,,,,,,,,294.2043,294.3025,294.3028,296.2959,practice2,j,1,0,1,1,15,1,1,centre,threatening,neutral,0.6009,,,,,,,,,,,,,,,,,
,,,,,612967,m,y,r,n,14,0,2025-04-01_21h16.34.741,VisualSearchFaces,2024.2.4,Win32,60.24096386,,,,,,,,297.3056,297.4053,297.4054,299.4109,practice2,j,1,0,2,2,12,1,1,top_right,friendly,neutral,0.6476,,,,,,,,,,,,,,,,,
,,,,,612967,m,y,r,n,14,0,2025-04-01_21h16.34.741,VisualSearchFaces,2024.2.4,Win32,60.24096386,,,,,,,,300.3969,300.5106,300.5107,302.5129,practice2,f,1,0,3,3,28,1,0,bottom_left,neutral,no_target,0.8169,,,,,,,,,,,,,,,,,
,,,,,612967,m,y,r,n,14,0,2025-04-01_21h16.34.741,VisualSearchFaces,2024.2.4,Win32,60.24096386,,,,,,,,303.5188,303.6306,303.6307,305.6253,practice2,j,1,0,4,4,3,1,1,bottom_left,neutral,friendly,0.6288,,,,,,,,,,,,,,,,,
,,,,,612967,m,y,r,n,14,0,2025-04-01_21h16.34.741,VisualSearchFaces,2024.2.4,Win32,60.24096386,,,,,,,,306.6302,306.7311,306.7311,308.7316,practice2,j,1,0,5,5,4,1,1,bottom_right,neutral,friendly,0.4675,,,,,,,,,,,,,,,,,
,,,,,612967,m,y,r,n,14,0,2025-04-01_21h16.34.741,VisualSearchFaces,2024.2.4,Win32,60.24096386,,,,,,,,309.7342,309.8372,309.8373,311.8265,practice2,f,0,0,6,6,11,1,1,top_left,friendly,neutral,0.8777,,,,,,,,,,,,,,,,,
,,,,,612967,m,y,r,n,14,0,2025-04-01_21h16.34.741,VisualSearchFaces,2024.2.4,Win32,60.24096386,,,,,,,,312.8382,312.9365,312.9366,314.9277,practice2,j,1,0,7,7,17,1,1,top_right,threatening,neutral,0.816,,,,,,,,,,,,,,,,,
,,,,,612967,m,y,r,n,14,0,2025-04-01_21h16.34.741,VisualSearchFaces,2024.2.4,Win32,60.24096386,,,,,,,,315.9382,316.0463,316.0463,318.059,practice2,f,1,0,8,8,37,1,0,top_right,threatening,no_target,1.0167,,,,,,,,,,,,,,,,,
,,,,,612967,m,y,r,n,14,0,2025-04-01_21h16.34.741,VisualSearchFaces,2024.2.4,Win32,60.24096386,,,,,,,,319.045,319.1435,319.1436,321.1363,practice2,f,1,0,9,9,25,1,0,centre,neutral,no_target,0.9215,,,,,,,,,,,,,,,,,
,,,,,612967,m,y,r,n,14,0,2025-04-01_21h16.34.741,VisualSearchFaces,2024.2.4,Win32,60.24096386,,,,,,,,322.1516,322.2529,322.2529,324.2465,practice2,f,1,0,10,10,26,1,0,top_left,neutral,no_target,0.5797,,,,,,,,,,,,,,,,,
,,,,,612967,m,y,r,n,14,0,2025-04-01_21h16.34.741,VisualSearchFaces,2024.2.4,Win32,60.24096386,,,,,,,,325.2523,325.3481,325.3482,327.356,practice2,f,1,0,11,11,35,1,0,centre,threatening,no_target,0.9467,,,,,,,,,,,,,,,,,
,,,,,612967,m,y,r,n,14,0,2025-04-01_21h16.34.741,VisualSearchFaces,2024.2.4,Win32,60.24096386,,,,,,,,328.3533,328.4602,328.4604,330.4647,practice2,f,1,0,12,12,22,1,0,top_right,neutral,no_target,0.6859,,,,,,,,,,,,,,,,,
,,,,,612967,m,y,r,n,14,0,2025-04-01_21h16.34.741,VisualSearchFaces,2024.2.4,Win32,60.24096386,,,,,,,,331.4619,331.5688,331.5689,333.5582,practice2,f,1,0,13,13,23,1,0,bottom_left,neutral,no_target,0.6315,,,,,,,,,,,,,,,,,
,,,,,612967,m,y,r,n,14,0,2025-04-01_21h16.34.741,VisualSearchFaces,2024.2.4,Win32,60.24096386,,,,,,,,334.5634,334.6777,334.6778,336.6778,practice2,f,0,0,14,14,19,1,1,bottom_right,threatening,neutral,1.1191,,,,,,,,,,,,,,,,,
,,,,,612967,m,y,r,n,14,0,2025-04-01_21h16.34.741,VisualSearchFaces,2024.2.4,Win32,60.24096386,,,,,,,,337.6867,337.7892,337.7893,339.7842,practice2,f,1,0,15,15,27,1,0,top_right,neutral,no_target,0.6778,,,,,,,,,,,,,,,,,
,,,,,612967,m,y,r,n,14,0,2025-04-01_21h16.34.741,VisualSearchFaces,2024.2.4,Win32,60.24096386,,,,,,,,340.7966,340.9049,340.905,342.92,practice2,f,1,0,16,16,29,1,0,bottom_right,neutral,no_target,0.6408,,,,,,,,,,,,,,,,,
,,,,,612967,m,y,r,n,14,0,2025-04-01_21h16.34.741,VisualSearchFaces,2024.2.4,Win32,60.24096386,,,,,,,,343.8981,343.9958,343.9959,345.993,practice2,j,1,0,17,17,13,1,1,bottom_left,friendly,neutral,0.7713,,,,,,,,,,,,,,,,,
,,,,,612967,m,y,r,n,14,0,2025-04-01_21h16.34.741,VisualSearchFaces,2024.2.4,Win32,60.24096386,,,,,,,,347.0006,347.1047,347.1047,349.0929,practice2,j,0,0,18,18,30,1,0,centre,friendly,no_target,1.3364,,,,,,,,,,,,,,,,,
,,,,,612967,m,y,r,n,14,0,2025-04-01_21h16.34.741,VisualSearchFaces,2024.2.4,Win32,60.24096386,,,,,,,,350.1093,350.21,350.2101,352.2093,practice2,j,1,0,19,19,10,1,1,centre,friendly,neutral,0.5973,,,,,,,,,,,,,,,,,
,,,,,612967,m,y,r,n,14,0,2025-04-01_21h16.34.741,VisualSearchFaces,2024.2.4,Win32,60.24096386,,,,,,,,353.2188,353.3136,353.3136,355.3115,practice2,j,1,0,20,20,7,1,1,top_right,neutral,threatening,0.6524,,,,,,,,,,,,,,,,,
,,,,,612967,m,y,r,n,14,0,2025-04-01_21h16.34.741,VisualSearchFaces,2024.2.4,Win32,60.24096386,,,,,,,,356.3105,356.4081,356.4082,358.4093,practice2,f,1,0,21,21,33,1,0,bottom_left,friendly,no_target,0.7968,,,,,,,,,,,,,,,,,
,,,,,612967,m,y,r,n,14,0,2025-04-01_21h16.34.741,VisualSearchFaces,2024.2.4,Win32,60.24096386,,,,,,,,359.4147,359.5228,359.5229,361.5177,practice2,f,1,0,22,22,21,1,0,top_left,neutral,no_target,0.8491,,,,,,,,,,,,,,,,,
,,,,,612967,m,y,r,n,14,0,2025-04-01_21h16.34.741,VisualSearchFaces,2024.2.4,Win32,60.24096386,,,,,,,,362.5129,362.6163,362.6164,364.622,practice2,j,1,0,23,23,8,1,1,bottom_left,neutral,threatening,0.7095,,,,,,,,,,,,,,,,,
,,,,,612967,m,y,r,n,14,0,2025-04-01_21h16.34.741,VisualSearchFaces,2024.2.4,Win32,60.24096386,,,,,,,,365.6179,365.7305,365.7306,367.7271,practice2,f,1,0,24,24,34,1,0,bottom_right,friendly,no_target,0.8198,,,,,,,,,,,,,,,,,
,,,,,612967,m,y,r,n,14,0,2025-04-01_21h16.34.741,VisualSearchFaces,2024.2.4,Win32,60.24096386,,,,,,,,368.7347,368.8331,368.8332,370.8291,practice2,f,1,0,25,25,39,1,0,bottom_right,threatening,no_target,0.9003,,,,,,,,,,,,,,,,,
,,,,,612967,m,y,r,n,14,0,2025-04-01_21h16.34.741,VisualSearchFaces,2024.2.4,Win32,60.24096386,,,,,,,,371.8348,371.9425,371.9426,373.9417,practice2,j,1,0,26,26,1,1,1,top_left,neutral,friendly,0.6382,,,,,,,,,,,,,,,,,
,,,,,612967,m,y,r,n,14,0,2025-04-01_21h16.34.741,VisualSearchFaces,2024.2.4,Win32,60.24096386,,,,,,,,374.9452,375.0502,375.0504,377.0444,practice2,f,1,0,27,27,24,1,0,bottom_right,neutral,no_target,0.6636,,,,,,,,,,,,,,,,,
,,,,,612967,m,y,r,n,14,0,2025-04-01_21h16.34.741,VisualSearchFaces,2024.2.4,Win32,60.24096386,,,,,,,,378.0544,378.1571,378.1572,380.1592,practice2,f,1,0,28,28,20,1,0,centre,neutral,no_target,0.6288,,,,,,,,,,,,,,,,,
,,,,,612967,m,y,r,n,14,0,2025-04-01_21h16.34.741,VisualSearchFaces,2024.2.4,Win32,60.24096386,,,,,,,,381.1629,381.2615,381.2615,383.2618,practice2,j,0,0,29,29,38,1,0,bottom_left,threatening,no_target,0.9271,,,,,,,,,,,,,,,,,
,,,,,612967,m,y,r,n,14,0,2025-04-01_21h16.34.741,VisualSearchFaces,2024.2.4,Win32,60.24096386,,,,,,,,384.2675,384.3762,384.3762,386.3738,practice2,j,1,0,30,30,0,1,1,centre,neutral,friendly,0.5332,,,,,,,,,,,,,,,,,
,,,,,612967,m,y,r,n,14,0,2025-04-01_21h16.34.741,VisualSearchFaces,2024.2.4,Win32,60.24096386,,,,,,,,387.3695,387.4687,387.4689,389.4608,practice2,j,0,0,31,31,31,1,0,top_left,friendly,no_target,0.6968,,,,,,,,,,,,,,,,,
,,,,,612967,m,y,r,n,14,0,2025-04-01_21h16.34.741,VisualSearchFaces,2024.2.4,Win32,60.24096386,,,,,,,,390.4657,390.5635,390.5636,392.5626,practice2,j,1,0,32,32,5,1,1,centre,neutral,threatening,0.6134,,,,,,,,,,,,,,,,,
,,,,,612967,m,y,r,n,14,0,2025-04-01_21h16.34.741,VisualSearchFaces,2024.2.4,Win32,60.24096386,,,,,,,,393.5673,393.6772,393.6772,395.6762,practice2,j,1,0,33,33,18,1,1,bottom_left,threatening,neutral,1.3492,,,,,,,,,,,,,,,,,
,,,,,612967,m,y,r,n,14,0,2025-04-01_21h16.34.741,VisualSearchFaces,2024.2.4,Win32,60.24096386,,,,,,,,396.6888,396.792,396.792,398.7949,practice2,f,1,0,34,34,32,1,0,top_right,friendly,no_target,1.0149,,,,,,,,,,,,,,,,,
,,,,,612967,m,y,r,n,14,0,2025-04-01_21h16.34.741,VisualSearchFaces,2024.2.4,Win32,60.24096386,,,,,,,,399.8011,399.8958,399.8959,401.8903,practice2,j,1,0,35,35,9,1,1,bottom_right,neutral,threatening,0.6147,,,,,,,,,,,,,,,,,
,,,,,612967,m,y,r,n,14,0,2025-04-01_21h16.34.741,VisualSearchFaces,2024.2.4,Win32,60.24096386,,,,,,,,402.8955,402.9926,402.9926,404.9953,practice2,j,1,0,36,36,14,1,1,bottom_right,friendly,neutral,0.777,,,,,,,,,,,,,,,,,
,,,,,612967,m,y,r,n,14,0,2025-04-01_21h16.34.741,VisualSearchFaces,2024.2.4,Win32,60.24096386,,,,,,,,405.9873,406.0997,406.0997,408.0958,practice2,j,1,0,37,37,2,1,1,top_right,neutral,friendly,0.6652,,,,,,,,,,,,,,,,,
,,,,,612967,m,y,r,n,14,0,2025-04-01_21h16.34.741,VisualSearchFaces,2024.2.4,Win32,60.24096386,,,,,,,,409.1115,409.2169,409.217,411.2093,practice2,j,1,0,38,38,16,1,1,top_left,threatening,neutral,0.8608,,,,,,,,,,,,,,,,,
,,,,,612967,m,y,r,n,14,0,2025-04-01_21h16.34.741,VisualSearchFaces,2024.2.4,Win32,60.24096386,,,,,,,,412.2151,412.3112,412.3113,414.3067,practice2,j,1,0,39,39,6,1,1,top_left,neutral,threatening,0.6077,,,,,,,,,,,,,,,,,
,,,,,612967,m,y,r,n,14,0,2025-04-01_21h16.34.741,VisualSearchFaces,2024.2.4,Win32,60.24096386,,,419.7457,426.6594,space,6.881,,427.6635,427.7752,427.7752,429.7628,block1,j,1,0,0,0,9,1,1,bottom_right,neutral,threatening,0.4777,,414.3088,419.74,space,5.4018,,,,,,,,,,,,
,,,,,612967,m,y,r,n,14,0,2025-04-01_21h16.34.741,VisualSearchFaces,2024.2.4,Win32,60.24096386,,,,,,,,430.7847,430.8925,430.8926,432.8885,block1,j,1,0,1,1,14,1,1,bottom_right,friendly,neutral,0.572,,,,,,,,,,,,,,,,,
,,,,,612967,m,y,r,n,14,0,2025-04-01_21h16.34.741,VisualSearchFaces,2024.2.4,Win32,60.24096386,,,,,,,,433.9001,433.9973,433.9973,435.9912,block1,f,0,0,2,2,11,1,1,top_left,friendly,neutral,0.8722,,,,,,,,,,,,,,,,,
,,,,,612967,m,y,r,n,14,0,2025-04-01_21h16.34.741,VisualSearchFaces,2024.2.4,Win32,60.24096386,,,,,,,,436.9932,437.0921,437.0922,439.095,block1,f,0,0,3,3,3,1,1,bottom_left,neutral,friendly,0.6543,,,,,,,,,,,,,,,,,
,,,,,612967,m,y,r,n,14,0,2025-04-01_21h16.34.741,VisualSearchFaces,2024.2.4,Win32,60.24096386,,,,,,,,440.1005,440.2014,440.2014,442.1896,block1,j,1,0,4,4,13,1,1,bottom_left,friendly,neutral,1.1973,,,,,,,,,,,,,,,,,
,,,,,612967,m,y,r,n,14,0,2025-04-01_21h16.34.741,VisualSearchFaces,2024.2.4,Win32,60.24096386,,,,,,,,443.1959,443.3087,443.3087,445.3021,block1,j,1,0,5,5,7,1,1,top_right,neutral,threatening,0.6121,,,,,,,,,,,,,,,,,
,,,,,612967,m,y,r,n,14,0,2025-04-01_21h16.34.741,VisualSearchFaces,2024.2.4,Win32,60.24096386,,,,,,,,446.3144,446.4158,446.4158,448.4066,block1,f,1,0,6,6,22,1,0,top_right,neutral,no_target,0.7577,,,,,,,,,,,,,,,,,
,,,,,612967,m,y,r,n,14,0,2025-04-01_21h16.34.741,VisualSearchFaces,2024.2.4,Win32,60.24096386,,,,,,,,449.4098,449.5093,449.5095,451.5065,block1,f,1,0,7,7,28,1,0,bottom_left,neutral,no_target,0.7304,,,,,,,,,,,,,,,,,
,,,,,612967,m,y,r,n,14,0,2025-04-01_21h16.34.741,VisualSearchFaces,2024.2.4,Win32,60.24096386,,,,,,,,452.5084,452.6201,452.6202,454.6197,block1,j,0,0,8,8,39,1,0,bottom_right,threatening,no_target,1.0263,,,,,,,,,,,,,,,,,
,,,,,612967,m,y,r,n,14,0,2025-04-01_21h16.34.741,VisualSearchFaces,2024.2.4,Win32,60.24096386,,,,,,,,455.6172,455.7222,455.7222,457.7253,block1,j,1,0,9,9,2,1,1,top_right,neutral,friendly,0.63,,,,,,,,,,,,,,,,,
,,,,,612967,m,y,r,n,14,0,2025-04-01_21h16.34.741,VisualSearchFaces,2024.2.4,Win32,60.24096386,,,,,,,,458.7143,458.8208,458.8209,460.8136,block1,f,1,0,10,10,25,1,0,centre,neutral,no_target,1.1077,,,,,,,,,,,,,,,,,
,,,,,612967,m,y,r,n,14,0,2025-04-01_21h16.34.741,VisualSearchFaces,2024.2.4,Win32,60.24096386,,,,,,,,461.8121,461.9129,461.913,463.9084,block1,f,1,0,11,11,29,1,0,bottom_right,neutral,no_target,0.5962,,,,,,,,,,,,,,,,,
,,,,,612967,m,y,r,n,14,0,2025-04-01_21h16.34.741,VisualSearchFaces,2024.2.4,Win32,60.24096386,,,,,,,,464.9184,465.0161,465.0162,467.0117,block1,j,1,0,12,12,8,1,1,bottom_left,neutral,threatening,0.6803,,,,,,,,,,,,,,,,,
,,,,,612967,m,y,r,n,14,0,2025-04-01_21h16.34.741,VisualSearchFaces,2024.2.4,Win32,60.24096386,,,,,,,,468.0202,468.1172,468.1173,470.1108,block1,j,1,0,13,13,15,1,1,centre,threatening,neutral,1.3748,,,,,,,,,,,,,,,,,
,,,,,612967,m,y,r,n,14,0,2025-04-01_21h16.34.741,VisualSearchFaces,2024.2.4,Win32,60.24096386,,,,,,,,471.1157,471.2289,471.2289,473.2248,block1,j,1,0,14,14,10,1,1,centre,friendly,neutral,0.6535,,,,,,,,,,,,,,,,,
,,,,,612967,m,y,r,n,14,0,2025-04-01_21h16.34.741,VisualSearchFaces,2024.2.4,Win32,60.24096386,,,,,,,,474.2152,474.3195,474.3196,476.3083,block1,j,1,0,15,15,16,1,1,top_left,threatening,neutral,0.6583,,,,,,,,,,,,,,,,,
,,,,,612967,m,y,r,n,14,0,2025-04-01_21h16.34.741,VisualSearchFaces,2024.2.4,Win32,60.24096386,,,,,,,,477.3116,477.4124,477.4125,479.4115,block1,f,1,0,16,16,37,1,0,top_right,threatening,no_target,1.1597,,,,,,,,,,,,,,,,,
,,,,,612967,m,y,r,n,14,0,2025-04-01_21h16.34.741,VisualSearchFaces,2024.2.4,Win32,60.24096386,,,,,,,,480.4153,480.5288,480.5289,482.5286,block1,j,1,0,17,17,18,1,1,bottom_left,threatening,neutral,0.6221,,,,,,,,,,,,,,,,,
,,,,,612967,m,y,r,n,14,0,2025-04-01_21h16.34.741,VisualSearchFaces,2024.2.4,Win32,60.24096386,,,,,,,,483.5331,483.6337,483.6338,485.636,block1,j,1,0,18,18,6,1,1,top_left,neutral,threatening,0.8145,,,,,,,,,,,,,,,,,
,,,,,612967,m,y,r,n,14,0,2025-04-01_21h16.34.741,VisualSearchFaces,2024.2.4,Win32,60.24096386,,,,,,,,486.6348,486.7415,486.7416,488.7426,block1,f,1,0,19,19,35,1,0,centre,threatening,no_target,0.9594,,,,,,,,,,,,,,,,,
,,,,,612967,m,y,r,n,14,0,2025-04-01_21h16.34.741,VisualSearchFaces,2024.2.4,Win32,60.24096386,,,,,,,,489.7457,489.8451,489.8452,491.8436,block1,j,1,0,20,20,19,1,1,bottom_right,threatening,neutral,0.9343,,,,,,,,,,,,,,,,,
,,,,,612967,m,y,r,n,14,0,2025-04-01_21h16.34.741,VisualSearchFaces,2024.2.4,Win32,60.24096386,,,,,,,,492.8466,492.9588,492.9589,494.9564,block1,j,0,0,21,21,34,1,0,bottom_right,friendly,no_target,0.7501,,,,,,,,,,,,,,,,,
,,,,,612967,m,y,r,n,14,0,2025-04-01_21h16.34.741,VisualSearchFaces,2024.2.4,Win32,60.24096386,,,,,,,,495.9605,496.0719,496.072,498.0731,block1,j,1,0,22,22,5,1,1,centre,neutral,threatening,0.6062,,,,,,,,,,,,,,,,,
,,,,,612967,m,y,r,n,14,0,2025-04-01_21h16.34.741,VisualSearchFaces,2024.2.4,Win32,60.24096386,,,,,,,,499.0747,499.1776,499.1779,501.1735,block1,f,1,0,23,23,30,1,0,centre,friendly,no_target,1.3807,,,,,,,,,,,,,,,,,
,,,,,612967,m,y,r,n,14,0,2025-04-01_21h16.34.741,VisualSearchFaces,2024.2.4,Win32,60.24096386,,,,,,,,502.1746,502.2745,502.2745,504.2785,block1,f,1,0,24,24,21,1,0,top_left,neutral,no_target,0.8505,,,,,,,,,,,,,,,,,
,,,,,612967,m,y,r,n,14,0,2025-04-01_21h16.34.741,VisualSearchFaces,2024.2.4,Win32,60.24096386,,,,,,,,505.273,505.3828,505.3829,507.3839,block1,f,1,0,25,25,23,1,0,bottom_left,neutral,no_target,0.719,,,,,,,,,,,,,,,,,
,,,,,612967,m,y,r,n,14,0,2025-04-01_21h16.34.741,VisualSearchFaces,2024.2.4,Win32,60.24096386,,,,,,,,508.387,508.4897,508.4899,510.4783,block1,j,0,0,26,26,33,1,0,bottom_left,friendly,no_target,1.9406,,,,,,,,,,,,,,,,,
,,,,,612967,m,y,r,n,14,0,2025-04-01_21h16.34.741,VisualSearchFaces,2024.2.4,Win32,60.24096386,,,,,,,,511.4836,511.5895,511.5896,513.5923,block1,f,1,0,27,27,38,1,0,bottom_left,threatening,no_target,1.3005,,,,,,,,,,,,,,,,,
,,,,,612967,m,y,r,n,14,0,2025-04-01_21h16.34.741,VisualSearchFaces,2024.2.4,Win32,60.24096386,,,,,,,,514.5946,514.6972,514.6973,516.697,block1,j,1,0,28,28,1,1,1,top_left,neutral,friendly,0.742,,,,,,,,,,,,,,,,,
,,,,,612967,m,y,r,n,14,0,2025-04-01_21h16.34.741,VisualSearchFaces,2024.2.4,Win32,60.24096386,,,,,,,,517.7005,517.8113,517.8114,519.8058,block1,f,1,0,29,29,26,1,0,top_left,neutral,no_target,0.7442,,,,,,,,,,,,,,,,,
,,,,,612967,m,y,r,n,14,0,2025-04-01_21h16.34.741,VisualSearchFaces,2024.2.4,Win32,60.24096386,,,,,,,,520.8184,520.917,520.9171,522.9108,block1,j,1,0,30,30,0,1,1,centre,neutral,friendly,0.6221,,,,,,,,,,,,,,,,,
,,,,,612967,m,y,r,n,14,0,2025-04-01_21h16.34.741,VisualSearchFaces,2024.2.4,Win32,60.24096386,,,,,,,,523.9165,524.0241,524.0241,526.0222,block1,j,1,0,31,31,17,1,1,top_right,threatening,neutral,1.1083,,,,,,,,,,,,,,,,,
,,,,,612967,m,y,r,n,14,0,2025-04-01_21h16.34.741,VisualSearchFaces,2024.2.4,Win32,60.24096386,,,,,,,,527.026,527.1257,527.1257,529.1226,block1,j,0,0,32,32,36,1,0,top_left,threatening,no_target,1.1868,,,,,,,,,,,,,,,,,
,,,,,612967,m,y,r,n,14,0,2025-04-01_21h16.34.741,VisualSearchFaces,2024.2.4,Win32,60.24096386,,,,,,,,530.1244,530.233,530.2331,532.2275,block1,f,1,0,33,33,31,1,0,top_left,friendly,no_target,0.8536,,,,,,,,,,,,,,,,,
,,,,,612967,m,y,r,n,14,0,2025-04-01_21h16.34.741,VisualSearchFaces,2024.2.4,Win32,60.24096386,,,,,,,,533.2403,533.3345,533.3345,535.3386,block1,f,1,0,34,34,27,1,0,top_right,neutral,no_target,0.9403,,,,,,,,,,,,,,,,,
,,,,,612967,m,y,r,n,14,0,2025-04-01_21h16.34.741,VisualSearchFaces,2024.2.4,Win32,60.24096386,,,,,,,,536.3365,536.4369,536.437,538.4386,block1,f,1,0,35,35,20,1,0,centre,neutral,no_target,0.5556,,,,,,,,,,,,,,,,,
,,,,,612967,m,y,r,n,14,0,2025-04-01_21h16.34.741,VisualSearchFaces,2024.2.4,Win32,60.24096386,,,,,,,,539.4399,539.5549,539.555,541.5566,block1,f,1,0,36,36,24,1,0,bottom_right,neutral,no_target,0.6018,,,,,,,,,,,,,,,,,
,,,,,612967,m,y,r,n,14,0,2025-04-01_21h16.34.741,VisualSearchFaces,2024.2.4,Win32,60.24096386,,,,,,,,542.5615,542.6657,542.6657,544.6599,block1,j,1,0,37,37,12,1,1,top_right,friendly,neutral,1.3064,,,,,,,,,,,,,,,,,
,,,,,612967,m,y,r,n,14,0,2025-04-01_21h16.34.741,VisualSearchFaces,2024.2.4,Win32,60.24096386,,,,,,,,545.6657,545.7779,545.7779,547.7767,block1,f,1,0,38,38,32,1,0,top_right,friendly,no_target,1.2756,,,,,,,,,,,,,,,,,
,,,,,612967,m,y,r,n,14,0,2025-04-01_21h16.34.741,VisualSearchFaces,2024.2.4,Win32,60.24096386,,,,,,,,548.773,548.8821,548.8822,550.8756,block1,j,1,0,39,39,4,1,1,bottom_right,neutral,friendly,0.9151,,,,,,,,,,,,,,,,,
,,,,,612967,m,y,r,n,14,0,2025-04-01_21h16.34.741,VisualSearchFaces,2024.2.4,Win32,60.24096386,,,,,,,,551.8755,551.9834,551.9835,553.9763,block1,j,1,1,0,40,7,1,1,top_right,neutral,threatening,0.6116,,,,,,,,,,,,,,,,,
,,,,,612967,m,y,r,n,14,0,2025-04-01_21h16.34.741,VisualSearchFaces,2024.2.4,Win32,60.24096386,,,,,,,,554.9924,555.0999,555.0999,557.0951,block1,f,1,1,1,41,26,1,0,top_left,neutral,no_target,0.7632,,,,,,,,,,,,,,,,,
,,,,,612967,m,y,r,n,14,0,2025-04-01_21h16.34.741,VisualSearchFaces,2024.2.4,Win32,60.24096386,,,,,,,,558.0989,558.1975,558.1976,560.1931,block1,f,1,1,2,42,30,1,0,centre,friendly,no_target,1.1232,,,,,,,,,,,,,,,,,
,,,,,612967,m,y,r,n,14,0,2025-04-01_21h16.34.741,VisualSearchFaces,2024.2.4,Win32,60.24096386,,,,,,,,561.1948,561.2975,561.2975,563.2962,block1,f,1,1,3,43,21,1,0,top_left,neutral,no_target,0.6941,,,,,,,,,,,,,,,,,
,,,,,612967,m,y,r,n,14,0,2025-04-01_21h16.34.741,VisualSearchFaces,2024.2.4,Win32,60.24096386,,,,,,,,564.2968,564.3998,564.3999,566.3994,block1,f,1,1,4,44,35,1,0,centre,threatening,no_target,1.0925,,,,,,,,,,,,,,,,,
,,,,,612967,m,y,r,n,14,0,2025-04-01_21h16.34.741,VisualSearchFaces,2024.2.4,Win32,60.24096386,,,,,,,,567.4073,567.5094,567.5094,569.4979,block1,f,1,1,5,45,29,1,0,bottom_right,neutral,no_target,0.6737,,,,,,,,,,,,,,,,,
,,,,,612967,m,y,r,n,14,0,2025-04-01_21h16.34.741,VisualSearchFaces,2024.2.4,Win32,60.24096386,,,,,,,,570.5099,570.6158,570.616,572.6071,block1,f,1,1,6,46,37,1,0,top_right,threatening,no_target,1.0703,,,,,,,,,,,,,,,,,
,,,,,612967,m,y,r,n,14,0,2025-04-01_21h16.34.741,VisualSearchFaces,2024.2.4,Win32,60.24096386,,,,,,,,573.6098,573.716,573.7161,575.7118,block1,f,1,1,7,47,36,1,0,top_left,threatening,no_target,0.7631,,,,,,,,,,,,,,,,,
,,,,,612967,m,y,r,n,14,0,2025-04-01_21h16.34.741,VisualSearchFaces,2024.2.4,Win32,60.24096386,,,,,,,,576.713,576.8219,576.822,578.8259,block1,j,1,1,8,48,19,1,1,bottom_right,threatening,neutral,0.4825,,,,,,,,,,,,,,,,,
,,,,,612967,m,y,r,n,14,0,2025-04-01_21h16.34.741,VisualSearchFaces,2024.2.4,Win32,60.24096386,,,,,,,,579.8271,579.9337,579.9338,581.9381,block1,j,1,1,9,49,9,1,1,bottom_right,neutral,threatening,0.6992,,,,,,,,,,,,,,,,,
,,,,,612967,m,y,r,n,14,0,2025-04-01_21h16.34.741,VisualSearchFaces,2024.2.4,Win32,60.24096386,,,,,,,,582.9383,583.0394,583.0394,585.0433,block1,j,1,1,10,50,3,1,1,bottom_left,neutral,friendly,0.561,,,,,,,,,,,,,,,,,
,,,,,612967,m,y,r,n,14,0,2025-04-01_21h16.34.741,VisualSearchFaces,2024.2.4,Win32,60.24096386,,,,,,,,586.048,586.1543,586.1544,588.1431,block1,f,1,1,11,51,28,1,0,bottom_left,neutral,no_target,0.6424,,,,,,,,,,,,,,,,,
,,,,,612967,m,y,r,n,14,0,2025-04-01_21h16.34.741,VisualSearchFaces,2024.2.4,Win32,60.24096386,,,,,,,,589.1486,589.2586,589.2587,591.2537,block1,j,0,1,12,52,34,1,0,bottom_right,friendly,no_target,1.4157,,,,,,,,,,,,,,,,,
,,,,,612967,m,y,r,n,14,0,2025-04-01_21h16.34.741,VisualSearchFaces,2024.2.4,Win32,60.24096386,,,,,,,,592.2596,592.3773,592.3773,594.3809,block1,j,0,1,13,53,33,1,0,bottom_left,friendly,no_target,1.4731,,,,,,,,,,,,,,,,,
,,,,,612967,m,y,r,n,14,0,2025-04-01_21h16.34.741,VisualSearchFaces,2024.2.4,Win32,60.24096386,,,,,,,,595.3762,595.4852,595.4853,597.4766,block1,j,1,1,14,54,4,1,1,bottom_right,neutral,friendly,1.0602,,,,,,,,,,,,,,,,,
,,,,,612967,m,y,r,n,14,0,2025-04-01_21h16.34.741,VisualSearchFaces,2024.2.4,Win32,60.24096386,,,,,,,,598.4814,598.5887,598.5888,600.5766,block1,j,1,1,15,55,11,1,1,top_left,friendly,neutral,0.9895,,,,,,,,,,,,,,,,,
,,,,,612967,m,y,r,n,14,0,2025-04-01_21h16.34.741,VisualSearchFaces,2024.2.4,Win32,60.24096386,,,,,,,,601.5819,601.6856,601.6856,603.6759,block1,j,1,1,16,56,1,1,1,top_left,neutral,friendly,0.7418,,,,,,,,,,,,,,,,,
,,,,,612967,m,y,r,n,14,0,2025-04-01_21h16.34.741,VisualSearchFaces,2024.2.4,Win32,60.24096386,,,,,,,,604.684,604.7874,604.7874,606.7905,block1,j,1,1,17,57,17,1,1,top_right,threatening,neutral,1.2882,,,,,,,,,,,,,,,,,
,,,,,612967,m,y,r,n,14,0,2025-04-01_21h16.34.741,VisualSearchFaces,2024.2.4,Win32,60.24096386,,,,,,,,607.7827,607.8846,607.8847,609.8874,block1,j,1,1,18,58,18,1,1,bottom_left,threatening,neutral,1.0486,,,,,,,,,,,,,,,,,
,,,,,612967,m,y,r,n,14,0,2025-04-01_21h16.34.741,VisualSearchFaces,2024.2.4,Win32,60.24096386,,,,,,,,610.8909,610.9894,610.9895,612.9924,block1,j,1,1,19,59,6,1,1,top_left,neutral,threatening,0.6571,,,,,,,,,,,,,,,,,
,,,,,612967,m,y,r,n,14,0,2025-04-01_21h16.34.741,VisualSearchFaces,2024.2.4,Win32,60.24096386,,,,,,,,613.9973,614.1093,614.1093,616.1036,block1,f,1,1,20,60,24,1,0,bottom_right,neutral,no_target,0.6828,,,,,,,,,,,,,,,,,
,,,,,612967,m,y,r,n,14,0,2025-04-01_21h16.34.741,VisualSearchFaces,2024.2.4,Win32,60.24096386,,,,,,,,617.0932,617.2041,617.2041,619.1927,block1,j,1,1,21,61,2,1,1,top_right,neutral,friendly,0.6745,,,,,,,,,,,,,,,,,
,,,,,612967,m,y,r,n,14,0,2025-04-01_21h16.34.741,VisualSearchFaces,2024.2.4,Win32,60.24096386,,,,,,,,620.1983,620.3037,620.3038,622.304,block1,f,1,1,22,62,20,1,0,centre,neutral,no_target,0.6922,,,,,,,,,,,,,,,,,
,,,,,612967,m,y,r,n,14,0,2025-04-01_21h16.34.741,VisualSearchFaces,2024.2.4,Win32,60.24096386,,,,,,,,623.3124,623.4204,623.4204,625.4205,block1,j,1,1,23,63,16,1,1,top_left,threatening,neutral,0.7742,,,,,,,,,,,,,,,,,
,,,,,612967,m,y,r,n,14,0,2025-04-01_21h16.34.741,VisualSearchFaces,2024.2.4,Win32,60.24096386,,,,,,,,626.4186,626.5147,626.5149,628.5187,block1,j,0,1,24,64,38,1,0,bottom_left,threatening,no_target,0.8193,,,,,,,,,,,,,,,,,
,,,,,612967,m,y,r,n,14,0,2025-04-01_21h16.34.741,VisualSearchFaces,2024.2.4,Win32,60.24096386,,,,,,,,629.5139,629.61,629.6101,631.6097,block1,j,1,1,25,65,0,1,1,centre,neutral,friendly,0.9507,,,,,,,,,,,,,,,,,
,,,,,612967,m,y,r,n,14,0,2025-04-01_21h16.34.741,VisualSearchFaces,2024.2.4,Win32,60.24096386,,,,,,,,632.6141,632.7208,632.7208,634.7233,block1,j,1,1,26,66,14,1,1,bottom_right,friendly,neutral,0.9045,,,,,,,,,,,,,,,,,
,,,,,612967,m,y,r,n,14,0,2025-04-01_21h16.34.741,VisualSearchFaces,2024.2.4,Win32,60.24096386,,,,,,,,635.7267,635.8258,635.8259,637.8209,block1,j,1,1,27,67,13,1,1,bottom_left,friendly,neutral,0.7193,,,,,,,,,,,,,,,,,
,,,,,612967,m,y,r,n,14,0,2025-04-01_21h16.34.741,VisualSearchFaces,2024.2.4,Win32,60.24096386,,,,,,,,638.8316,638.9351,638.9352,640.9257,block1,f,1,1,28,68,25,1,0,centre,neutral,no_target,0.6765,,,,,,,,,,,,,,,,,
,,,,,612967,m,y,r,n,14,0,2025-04-01_21h16.34.741,VisualSearchFaces,2024.2.4,Win32,60.24096386,,,,,,,,641.9306,642.0393,642.0394,644.0309,block1,j,1,1,29,69,5,1,1,centre,neutral,threatening,0.6382,,,,,,,,,,,,,,,,,
,,,,,612967,m,y,r,n,14,0,2025-04-01_21h16.34.741,VisualSearchFaces,2024.2.4,Win32,60.24096386,,,,,,,,645.043,645.1536,645.1537,647.1542,block1,f,1,1,30,70,22,1,0,top_right,neutral,no_target,0.7633,,,,,,,,,,,,,,,,,
,,,,,612967,m,y,r,n,14,0,2025-04-01_21h16.34.741,VisualSearchFaces,2024.2.4,Win32,60.24096386,,,,,,,,648.1587,648.2547,648.2547,650.2536,block1,j,0,1,31,71,31,1,0,top_left,friendly,no_target,1.0608,,,,,,,,,,,,,,,,,
,,,,,612967,m,y,r,n,14,0,2025-04-01_21h16.34.741,VisualSearchFaces,2024.2.4,Win32,60.24096386,,,,,,,,651.2575,651.3641,651.3643,653.3676,block1,j,1,1,32,72,10,1,1,centre,friendly,neutral,0.6001,,,,,,,,,,,,,,,,,
,,,,,612967,m,y,r,n,14,0,2025-04-01_21h16.34.741,VisualSearchFaces,2024.2.4,Win32,60.24096386,,,,,,,,654.3652,654.4652,654.4653,656.4591,block1,j,0,1,33,73,32,1,0,top_right,friendly,no_target,1.1282,,,,,,,,,,,,,,,,,
,,,,,612967,m,y,r,n,14,0,2025-04-01_21h16.34.741,VisualSearchFaces,2024.2.4,Win32,60.24096386,,,,,,,,657.4634,657.5683,657.5684,659.5675,block1,j,1,1,34,74,15,1,1,centre,threatening,neutral,0.5872,,,,,,,,,,,,,,,,,
,,,,,612967,m,y,r,n,14,0,2025-04-01_21h16.34.741,VisualSearchFaces,2024.2.4,Win32,60.24096386,,,,,,,,660.5747,660.673,660.673,662.6642,block1,j,1,1,35,75,12,1,1,top_right,friendly,neutral,0.8076,,,,,,,,,,,,,,,,,
,,,,,612967,m,y,r,n,14,0,2025-04-01_21h16.34.741,VisualSearchFaces,2024.2.4,Win32,60.24096386,,,,,,,,663.6765,663.7789,663.7789,665.77,block1,j,0,1,36,76,39,1,0,bottom_right,threatening,no_target,0.8086,,,,,,,,,,,,,,,,,
,,,,,612967,m,y,r,n,14,0,2025-04-01_21h16.34.741,VisualSearchFaces,2024.2.4,Win32,60.24096386,,,,,,,,666.7728,666.8799,666.8799,668.8807,block1,f,1,1,37,77,27,1,0,top_right,neutral,no_target,0.7863,,,,,,,,,,,,,,,,,
,,,,,612967,m,y,r,n,14,0,2025-04-01_21h16.34.741,VisualSearchFaces,2024.2.4,Win32,60.24096386,,,,,,,,669.8805,669.9885,669.9885,671.9924,block1,j,1,1,38,78,8,1,1,bottom_left,neutral,threatening,0.7219,,,,,,,,,,,,,,,,,
,,,,,612967,m,y,r,n,14,0,2025-04-01_21h16.34.741,VisualSearchFaces,2024.2.4,Win32,60.24096386,,,,,,,,672.9803,673.0926,673.0927,675.0926,block1,f,1,1,39,79,23,1,0,bottom_left,neutral,no_target,1.1003,,,,,,,,,,,,,,,,,
,,,,,612967,m,y,r,n,14,0,2025-04-01_21h16.34.741,VisualSearchFaces,2024.2.4,Win32,60.24096386,,,679.748,686.1931,space,6.4142,,687.1918,687.2949,687.2949,689.2927,block2,j,1,0,0,0,12,1,1,top_right,friendly,neutral,0.7971,,675.0966,679.742,space,4.6223,,,,,,,,,,,,
,,,,,612967,m,y,r,n,14,0,2025-04-01_21h16.34.741,VisualSearchFaces,2024.2.4,Win32,60.24096386,,,,,,,,690.3,690.4083,690.4084,692.4029,block2,f,1,0,1,1,28,1,0,bottom_left,neutral,no_target,0.7121,,,,,,,,,,,,,,,,,
,,,,,612967,m,y,r,n,14,0,2025-04-01_21h16.34.741,VisualSearchFaces,2024.2.4,Win32,60.24096386,,,,,,,,693.4062,693.5071,693.5072,695.5068,block2,j,1,0,2,2,0,1,1,centre,neutral,friendly,0.5732,,,,,,,,,,,,,,,,,
,,,,,612967,m,y,r,n,14,0,2025-04-01_21h16.34.741,VisualSearchFaces,2024.2.4,Win32,60.24096386,,,,,,,,696.5099,696.6096,696.6097,698.6045,block2,j,0,0,3,3,36,1,0,top_left,threatening,no_target,0.7595,,,,,,,,,,,,,,,,,
,,,,,612967,m,y,r,n,14,0,2025-04-01_21h16.34.741,VisualSearchFaces,2024.2.4,Win32,60.24096386,,,,,,,,699.6084,699.7184,699.7185,701.7193,block2,f,1,0,4,4,21,1,0,top_left,neutral,no_target,0.7517,,,,,,,,,,,,,,,,,
,,,,,612967,m,y,r,n,14,0,2025-04-01_21h16.34.741,VisualSearchFaces,2024.2.4,Win32,60.24096386,,,,,,,,702.7293,702.8388,702.8388,704.836,block2,j,0,0,5,5,35,1,0,centre,threatening,no_target,0.9236,,,,,,,,,,,,,,,,,
,,,,,612967,m,y,r,n,14,0,2025-04-01_21h16.34.741,VisualSearchFaces,2024.2.4,Win32,60.24096386,,,,,,,,705.8418,705.9476,705.9477,707.942,block2,f,1,0,6,6,27,1,0,top_right,neutral,no_target,0.6802,,,,,,,,,,,,,,,,,
,,,,,612967,m,y,r,n,14,0,2025-04-01_21h16.34.741,VisualSearchFaces,2024.2.4,Win32,60.24096386,,,,,,,,708.9449,709.0455,709.0455,711.0412,block2,j,1,0,7,7,2,1,1,top_right,neutral,friendly,0.6398,,,,,,,,,,,,,,,,,
,,,,,612967,m,y,r,n,14,0,2025-04-01_21h16.34.741,VisualSearchFaces,2024.2.4,Win32,60.24096386,,,,,,,,712.047,712.1546,712.1546,714.1542,block2,j,1,0,8,8,13,1,1,bottom_left,friendly,neutral,0.8684,,,,,,,,,,,,,,,,,
,,,,,612967,m,y,r,n,14,0,2025-04-01_21h16.34.741,VisualSearchFaces,2024.2.4,Win32,60.24096386,,,,,,,,715.1571,715.2642,715.2643,717.2787,block2,j,1,0,9,9,8,1,1,bottom_left,neutral,threatening,0.9097,,,,,,,,,,,,,,,,,
,,,,,612967,m,y,r,n,14,0,2025-04-01_21h16.34.741,VisualSearchFaces,2024.2.4,Win32,60.24096386,,,,,,,,718.258,718.3543,718.3544,720.353,block2,j,0,0,10,10,32,1,0,top_right,friendly,no_target,0.7874,,,,,,,,,,,,,,,,,
,,,,,612967,m,y,r,n,14,0,2025-04-01_21h16.34.741,VisualSearchFaces,2024.2.4,Win32,60.24096386,,,,,,,,721.3492,721.4553,721.4554,723.4526,block2,j,0,0,11,11,39,1,0,bottom_right,threatening,no_target,0.6245,,,,,,,,,,,,,,,,,
,,,,,612967,m,y,r,n,14,0,2025-04-01_21h16.34.741,VisualSearchFaces,2024.2.4,Win32,60.24096386,,,,,,,,724.4551,724.5543,724.5544,726.5527,block2,j,1,0,12,12,3,1,1,bottom_left,neutral,friendly,0.6934,,,,,,,,,,,,,,,,,
,,,,,612967,m,y,r,n,14,0,2025-04-01_21h16.34.741,VisualSearchFaces,2024.2.4,Win32,60.24096386,,,,,,,,727.5481,727.6535,727.6536,729.6528,block2,j,0,0,13,13,38,1,0,bottom_left,threatening,no_target,0.7559,,,,,,,,,,,,,,,,,
,,,,,612967,m,y,r,n,14,0,2025-04-01_21h16.34.741,VisualSearchFaces,2024.2.4,Win32,60.24096386,,,,,,,,730.6567,730.7586,730.7586,732.7591,block2,f,1,0,14,14,23,1,0,bottom_left,neutral,no_target,0.6376,,,,,,,,,,,,,,,,,
,,,,,612967,m,y,r,n,14,0,2025-04-01_21h16.34.741,VisualSearchFaces,2024.2.4,Win32,60.24096386,,,,,,,,733.7624,733.8629,733.8629,735.8683,block2,j,1,0,15,15,5,1,1,centre,neutral,threatening,0.5849,,,,,,,,,,,,,,,,,
,,,,,612967,m,y,r,n,14,0,2025-04-01_21h16.34.741,VisualSearchFaces,2024.2.4,Win32,60.24096386,,,,,,,,736.857,736.9576,736.9577,738.9656,block2,j,1,0,16,16,6,1,1,top_left,neutral,threatening,0.6168,,,,,,,,,,,,,,,,,
,,,,,612967,m,y,r,n,14,0,2025-04-01_21h16.34.741,VisualSearchFaces,2024.2.4,Win32,60.24096386,,,,,,,,739.965,740.0734,740.0735,742.0649,block2,f,1,0,17,17,29,1,0,bottom_right,neutral,no_target,0.6344,,,,,,,,,,,,,,,,,
,,,,,612967,m,y,r,n,14,0,2025-04-01_21h16.34.741,VisualSearchFaces,2024.2.4,Win32,60.24096386,,,,,,,,743.0836,743.1955,743.1956,745.1784,block2,j,1,0,18,18,9,1,1,bottom_right,neutral,threatening,0.6195,,,,,,,,,,,,,,,,,
,,,,,612967,m,y,r,n,14,0,2025-04-01_21h16.34.741,VisualSearchFaces,2024.2.4,Win32,60.24096386,,,,,,,,746.1898,746.2954,746.2956,748.2911,block2,j,1,0,19,19,15,1,1,centre,threatening,neutral,0.938,,,,,,,,,,,,,,,,,
,,,,,612967,m,y,r,n,14,0,2025-04-01_21h16.34.741,VisualSearchFaces,2024.2.4,Win32,60.24096386,,,,,,,,749.291,749.391,749.3912,751.3861,block2,j,0,0,20,20,31,1,0,top_left,friendly,no_target,0.849,,,,,,,,,,,,,,,,,
,,,,,612967,m,y,r,n,14,0,2025-04-01_21h16.34.741,VisualSearchFaces,2024.2.4,Win32,60.24096386,,,,,,,,752.393,752.4877,752.4878,754.4877,block2,j,1,0,21,21,17,1,1,top_right,threatening,neutral,0.6644,,,,,,,,,,,,,,,,,
,,,,,612967,m,y,r,n,14,0,2025-04-01_21h16.34.741,VisualSearchFaces,2024.2.4,Win32,60.24096386,,,,,,,,755.4892,755.5982,755.5982,757.591,block2,j,1,0,22,22,10,1,1,centre,friendly,neutral,0.9145,,,,,,,,,,,,,,,,,
,,,,,612967,m,y,r,n,14,0,2025-04-01_21h16.34.741,VisualSearchFaces,2024.2.4,Win32,60.24096386,,,,,,,,758.5983,758.7077,758.7079,760.7018,block2,f,1,0,23,23,26,1,0,top_left,neutral,no_target,0.518,,,,,,,,,,,,,,,,,
,,,,,612967,m,y,r,n,14,0,2025-04-01_21h16.34.741,VisualSearchFaces,2024.2.4,Win32,60.24096386,,,,,,,,761.7078,761.8062,761.8062,763.8014,block2,j,1,0,24,24,18,1,1,bottom_left,threatening,neutral,0.6636,,,,,,,,,,,,,,,,,
,,,,,612967,m,y,r,n,14,0,2025-04-01_21h16.34.741,VisualSearchFaces,2024.2.4,Win32,60.24096386,,,,,,,,764.7923,764.8958,764.8959,766.8966,block2,f,0,0,25,25,19,1,1,bottom_right,threatening,neutral,1.3871,,,,,,,,,,,,,,,,,
,,,,,612967,m,y,r,n,14,0,2025-04-01_21h16.34.741,VisualSearchFaces,2024.2.4,Win32,60.24096386,,,,,,,,767.8955,768.0033,768.0033,770.0087,block2,f,1,0,26,26,37,1,0,top_right,threatening,no_target,0.8658,,,,,,,,,,,,,,,,,
,,,,,612967,m,y,r,n,14,0,2025-04-01_21h16.34.741,VisualSearchFaces,2024.2.4,Win32,60.24096386,,,,,,,,771.0027,771.1146,771.1147,773.1095,block2,j,1,0,27,27,16,1,1,top_left,threatening,neutral,0.5289,,,,,,,,,,,,,,,,,
,,,,,612967,m,y,r,n,14,0,2025-04-01_21h16.34.741,VisualSearchFaces,2024.2.4,Win32,60.24096386,,,,,,,,774.1145,774.2242,774.2242,776.2193,block2,j,1,0,28,28,14,1,1,bottom_right,friendly,neutral,0.8455,,,,,,,,,,,,,,,,,
,,,,,612967,m,y,r,n,14,0,2025-04-01_21h16.34.741,VisualSearchFaces,2024.2.4,Win32,60.24096386,,,,,,,,777.229,777.336,777.3361,779.3388,block2,j,0,0,29,29,34,1,0,bottom_right,friendly,no_target,0.8981,,,,,,,,,,,,,,,,,
,,,,,612967,m,y,r,n,14,0,2025-04-01_21h16.34.741,VisualSearchFaces,2024.2.4,Win32,60.24096386,,,,,,,,780.3353,780.4348,780.4348,782.4358,block2,f,1,0,30,30,22,1,0,top_right,neutral,no_target,0.6076,,,,,,,,,,,,,,,,,
,,,,,612967,m,y,r,n,14,0,2025-04-01_21h16.34.741,VisualSearchFaces,2024.2.4,Win32,60.24096386,,,,,,,,783.4459,783.547,783.547,785.5366,block2,f,1,0,31,31,24,1,0,bottom_right,neutral,no_target,0.5743,,,,,,,,,,,,,,,,,
,,,,,612967,m,y,r,n,14,0,2025-04-01_21h16.34.741,VisualSearchFaces,2024.2.4,Win32,60.24096386,,,,,,,,786.5412,786.6454,786.6455,788.6407,block2,,0,0,32,32,30,1,0,centre,friendly,no_target,,,,,,,,,,,,,,,,,,
,,,,,612967,m,y,r,n,14,0,2025-04-01_21h16.34.741,VisualSearchFaces,2024.2.4,Win32,60.24096386,,,,,,,,789.6453,789.7554,789.7555,791.7515,block2,j,1,0,33,33,4,1,1,bottom_right,neutral,friendly,0.6972,,,,,,,,,,,,,,,,,
,,,,,612967,m,y,r,n,14,0,2025-04-01_21h16.34.741,VisualSearchFaces,2024.2.4,Win32,60.24096386,,,,,,,,792.7493,792.8536,792.8537,794.8568,block2,f,1,0,34,34,20,1,0,centre,neutral,no_target,0.6978,,,,,,,,,,,,,,,,,
,,,,,612967,m,y,r,n,14,0,2025-04-01_21h16.34.741,VisualSearchFaces,2024.2.4,Win32,60.24096386,,,,,,,,795.8615,795.9573,795.9573,797.9601,block2,j,1,0,35,35,7,1,1,top_right,neutral,threatening,0.6472,,,,,,,,,,,,,,,,,
,,,,,612967,m,y,r,n,14,0,2025-04-01_21h16.34.741,VisualSearchFaces,2024.2.4,Win32,60.24096386,,,,,,,,798.956,799.0618,799.0619,801.0571,block2,f,1,0,36,36,25,1,0,centre,neutral,no_target,0.5846,,,,,,,,,,,,,,,,,
,,,,,612967,m,y,r,n,14,0,2025-04-01_21h16.34.741,VisualSearchFaces,2024.2.4,Win32,60.24096386,,,,,,,,802.0655,802.1632,802.1632,804.1574,block2,j,0,0,37,37,33,1,0,bottom_left,friendly,no_target,0.724,,,,,,,,,,,,,,,,,
,,,,,612967,m,y,r,n,14,0,2025-04-01_21h16.34.741,VisualSearchFaces,2024.2.4,Win32,60.24096386,,,,,,,,805.1641,805.2746,805.2747,807.2631,block2,j,1,0,38,38,1,1,1,top_left,neutral,friendly,0.7188,,,,,,,,,,,,,,,,,
,,,,,612967,m,y,r,n,14,0,2025-04-01_21h16.34.741,VisualSearchFaces,2024.2.4,Win32,60.24096386,,,,,,,,808.2676,808.3688,808.369,810.3515,block2,j,1,0,39,39,11,1,1,top_left,friendly,neutral,0.6971,,,,,,,,,,,,,,,,,
,,,,,612967,m,y,r,n,14,0,2025-04-01_21h16.34.741,VisualSearchFaces,2024.2.4,Win32,60.24096386,,,,,,,,811.3657,811.4634,811.4635,813.4773,block2,j,0,1,0,40,38,1,0,bottom_left,threatening,no_target,0.8626,,,,,,,,,,,,,,,,,
,,,,,612967,m,y,r,n,14,0,2025-04-01_21h16.34.741,VisualSearchFaces,2024.2.4,Win32,60.24096386,,,,,,,,814.4586,814.5607,814.5608,816.5516,block2,j,0,1,1,41,30,1,0,centre,friendly,no_target,0.7476,,,,,,,,,,,,,,,,,
,,,,,612967,m,y,r,n,14,0,2025-04-01_21h16.34.741,VisualSearchFaces,2024.2.4,Win32,60.24096386,,,,,,,,817.5571,817.6608,817.6608,819.6565,block2,j,1,1,2,42,5,1,1,centre,neutral,threatening,0.6272,,,,,,,,,,,,,,,,,
,,,,,612967,m,y,r,n,14,0,2025-04-01_21h16.34.741,VisualSearchFaces,2024.2.4,Win32,60.24096386,,,,,,,,820.6681,820.7742,820.7742,822.7728,block2,j,0,1,3,43,35,1,0,centre,threatening,no_target,0.6583,,,,,,,,,,,,,,,,,
,,,,,612967,m,y,r,n,14,0,2025-04-01_21h16.34.741,VisualSearchFaces,2024.2.4,Win32,60.24096386,,,,,,,,823.7771,823.8882,823.8883,825.8897,block2,j,1,1,4,44,2,1,1,top_right,neutral,friendly,0.5731,,,,,,,,,,,,,,,,,
,,,,,612967,m,y,r,n,14,0,2025-04-01_21h16.34.741,VisualSearchFaces,2024.2.4,Win32,60.24096386,,,,,,,,826.8947,827.0069,827.007,829.0011,block2,f,1,1,5,45,32,1,0,top_right,friendly,no_target,1.5927,,,,,,,,,,,,,,,,,
,,,,,612967,m,y,r,n,14,0,2025-04-01_21h16.34.741,VisualSearchFaces,2024.2.4,Win32,60.24096386,,,,,,,,830.0031,830.1025,830.1026,832.1041,block2,j,1,1,6,46,6,1,1,top_left,neutral,threatening,0.65,,,,,,,,,,,,,,,,,
,,,,,612967,m,y,r,n,14,0,2025-04-01_21h16.34.741,VisualSearchFaces,2024.2.4,Win32,60.24096386,,,,,,,,833.0956,833.1973,833.1974,835.2018,block2,f,1,1,7,47,23,1,0,bottom_left,neutral,no_target,0.7378,,,,,,,,,,,,,,,,,
,,,,,612967,m,y,r,n,14,0,2025-04-01_21h16.34.741,VisualSearchFaces,2024.2.4,Win32,60.24096386,,,,,,,,836.1983,836.2978,836.2979,838.2867,block2,f,0,1,8,48,3,1,1,bottom_left,neutral,friendly,0.7411,,,,,,,,,,,,,,,,,
,,,,,612967,m,y,r,n,14,0,2025-04-01_21h16.34.741,VisualSearchFaces,2024.2.4,Win32,60.24096386,,,,,,,,839.2903,839.3945,839.3946,841.3888,block2,f,1,1,9,49,27,1,0,top_right,neutral,no_target,0.8285,,,,,,,,,,,,,,,,,
,,,,,612967,m,y,r,n,14,0,2025-04-01_21h16.34.741,VisualSearchFaces,2024.2.4,Win32,60.24096386,,,,,,,,842.389,842.4899,842.4899,844.4886,block2,f,1,1,10,50,26,1,0,top_left,neutral,no_target,0.603,,,,,,,,,,,,,,,,,
,,,,,612967,m,y,r,n,14,0,2025-04-01_21h16.34.741,VisualSearchFaces,2024.2.4,Win32,60.24096386,,,,,,,,845.4971,845.6024,845.6026,847.598,block2,j,0,1,11,51,33,1,0,bottom_left,friendly,no_target,0.7841,,,,,,,,,,,,,,,,,
,,,,,612967,m,y,r,n,14,0,2025-04-01_21h16.34.741,VisualSearchFaces,2024.2.4,Win32,60.24096386,,,,,,,,848.6067,848.7017,848.7017,850.6935,block2,j,0,1,12,52,39,1,0,bottom_right,threatening,no_target,0.728,,,,,,,,,,,,,,,,,
,,,,,612967,m,y,r,n,14,0,2025-04-01_21h16.34.741,VisualSearchFaces,2024.2.4,Win32,60.24096386,,,,,,,,851.6882,851.7942,851.7943,853.7963,block2,j,1,1,13,53,9,1,1,bottom_right,neutral,threatening,0.5987,,,,,,,,,,,,,,,,,
,,,,,612967,m,y,r,n,14,0,2025-04-01_21h16.34.741,VisualSearchFaces,2024.2.4,Win32,60.24096386,,,,,,,,854.7812,854.89,854.8901,856.8945,block2,j,1,1,14,54,17,1,1,top_right,threatening,neutral,0.821,,,,,,,,,,,,,,,,,
,,,,,612967,m,y,r,n,14,0,2025-04-01_21h16.34.741,VisualSearchFaces,2024.2.4,Win32,60.24096386,,,,,,,,857.9005,858.0009,858.0009,859.9897,block2,j,0,1,15,55,36,1,0,top_left,threatening,no_target,0.6901,,,,,,,,,,,,,,,,,
,,,,,612967,m,y,r,n,14,0,2025-04-01_21h16.34.741,VisualSearchFaces,2024.2.4,Win32,60.24096386,,,,,,,,860.9949,861.0943,861.0944,863.0841,block2,j,1,1,16,56,12,1,1,top_right,friendly,neutral,0.7267,,,,,,,,,,,,,,,,,
,,,,,612967,m,y,r,n,14,0,2025-04-01_21h16.34.741,VisualSearchFaces,2024.2.4,Win32,60.24096386,,,,,,,,864.0864,864.1904,864.1907,866.1892,block2,j,1,1,17,57,19,1,1,bottom_right,threatening,neutral,0.6755,,,,,,,,,,,,,,,,,
,,,,,612967,m,y,r,n,14,0,2025-04-01_21h16.34.741,VisualSearchFaces,2024.2.4,Win32,60.24096386,,,,,,,,867.1942,867.31,867.3101,869.3067,block2,j,0,1,18,58,31,1,0,top_left,friendly,no_target,0.8486,,,,,,,,,,,,,,,,,
,,,,,612967,m,y,r,n,14,0,2025-04-01_21h16.34.741,VisualSearchFaces,2024.2.4,Win32,60.24096386,,,,,,,,870.3122,870.4225,870.4226,872.4171,block2,j,1,1,19,59,18,1,1,bottom_left,threatening,neutral,1.2891,,,,,,,,,,,,,,,,,
,,,,,612967,m,y,r,n,14,0,2025-04-01_21h16.34.741,VisualSearchFaces,2024.2.4,Win32,60.24096386,,,,,,,,873.4214,873.5189,873.519,875.5226,block2,f,1,1,20,60,24,1,0,bottom_right,neutral,no_target,0.6324,,,,,,,,,,,,,,,,,
,,,,,612967,m,y,r,n,14,0,2025-04-01_21h16.34.741,VisualSearchFaces,2024.2.4,Win32,60.24096386,,,,,,,,876.5222,876.6216,876.6216,878.6217,block2,f,1,1,21,61,29,1,0,bottom_right,neutral,no_target,0.5845,,,,,,,,,,,,,,,,,
,,,,,612967,m,y,r,n,14,0,2025-04-01_21h16.34.741,VisualSearchFaces,2024.2.4,Win32,60.24096386,,,,,,,,879.6251,879.722,879.7221,881.7117,block2,j,1,1,22,62,16,1,1,top_left,threatening,neutral,1.2951,,,,,,,,,,,,,,,,,
,,,,,612967,m,y,r,n,14,0,2025-04-01_21h16.34.741,VisualSearchFaces,2024.2.4,Win32,60.24096386,,,,,,,,882.7139,882.8149,882.815,884.817,block2,j,1,1,23,63,0,1,1,centre,neutral,friendly,0.6745,,,,,,,,,,,,,,,,,
,,,,,612967,m,y,r,n,14,0,2025-04-01_21h16.34.741,VisualSearchFaces,2024.2.4,Win32,60.24096386,,,,,,,,885.8209,885.9202,885.9203,887.9225,block2,j,1,1,24,64,4,1,1,bottom_right,neutral,friendly,0.6344,,,,,,,,,,,,,,,,,
,,,,,612967,m,y,r,n,14,0,2025-04-01_21h16.34.741,VisualSearchFaces,2024.2.4,Win32,60.24096386,,,,,,,,888.9248,889.0353,889.0354,891.0349,block2,f,1,1,25,65,20,1,0,centre,neutral,no_target,0.6727,,,,,,,,,,,,,,,,,
,,,,,612967,m,y,r,n,14,0,2025-04-01_21h16.34.741,VisualSearchFaces,2024.2.4,Win32,60.24096386,,,,,,,,892.039,892.1376,892.1376,894.1336,block2,f,1,1,26,66,21,1,0,top_left,neutral,no_target,0.5136,,,,,,,,,,,,,,,,,
,,,,,612967,m,y,r,n,14,0,2025-04-01_21h16.34.741,VisualSearchFaces,2024.2.4,Win32,60.24096386,,,,,,,,895.1378,895.2503,895.2504,897.2503,block2,f,1,1,27,67,22,1,0,top_right,neutral,no_target,0.4866,,,,,,,,,,,,,,,,,
,,,,,612967,m,y,r,n,14,0,2025-04-01_21h16.34.741,VisualSearchFaces,2024.2.4,Win32,60.24096386,,,,,,,,898.2547,898.358,898.3581,900.3494,block2,j,1,1,28,68,11,1,1,top_left,friendly,neutral,0.8446,,,,,,,,,,,,,,,,,
,,,,,612967,m,y,r,n,14,0,2025-04-01_21h16.34.741,VisualSearchFaces,2024.2.4,Win32,60.24096386,,,,,,,,901.3549,901.4514,901.4514,903.4502,block2,f,1,1,29,69,28,1,0,bottom_left,neutral,no_target,0.6478,,,,,,,,,,,,,,,,,
,,,,,612967,m,y,r,n,14,0,2025-04-01_21h16.34.741,VisualSearchFaces,2024.2.4,Win32,60.24096386,,,,,,,,904.4563,904.5574,904.5575,906.5554,block2,j,1,1,30,70,13,1,1,bottom_left,friendly,neutral,0.8394,,,,,,,,,,,,,,,,,
,,,,,612967,m,y,r,n,14,0,2025-04-01_21h16.34.741,VisualSearchFaces,2024.2.4,Win32,60.24096386,,,,,,,,907.5606,907.6596,907.6598,909.6548,block2,j,1,1,31,71,8,1,1,bottom_left,neutral,threatening,0.8344,,,,,,,,,,,,,,,,,
,,,,,612967,m,y,r,n,14,0,2025-04-01_21h16.34.741,VisualSearchFaces,2024.2.4,Win32,60.24096386,,,,,,,,910.6577,910.7698,910.7699,912.7714,block2,j,1,1,32,72,15,1,1,centre,threatening,neutral,0.7073,,,,,,,,,,,,,,,,,
,,,,,612967,m,y,r,n,14,0,2025-04-01_21h16.34.741,VisualSearchFaces,2024.2.4,Win32,60.24096386,,,,,,,,913.7768,913.8833,913.8834,915.8839,block2,j,0,1,33,73,34,1,0,bottom_right,friendly,no_target,0.7372,,,,,,,,,,,,,,,,,
,,,,,612967,m,y,r,n,14,0,2025-04-01_21h16.34.741,VisualSearchFaces,2024.2.4,Win32,60.24096386,,,,,,,,916.8851,916.9926,916.9927,918.9856,block2,j,1,1,34,74,7,1,1,top_right,neutral,threatening,0.632,,,,,,,,,,,,,,,,,
,,,,,612967,m,y,r,n,14,0,2025-04-01_21h16.34.741,VisualSearchFaces,2024.2.4,Win32,60.24096386,,,,,,,,919.9885,920.0868,920.0868,922.09,block2,j,1,1,35,75,14,1,1,bottom_right,friendly,neutral,1.2263,,,,,,,,,,,,,,,,,
,,,,,612967,m,y,r,n,14,0,2025-04-01_21h16.34.741,VisualSearchFaces,2024.2.4,Win32,60.24096386,,,,,,,,923.0894,923.1995,923.1996,925.2002,block2,f,1,1,36,76,25,1,0,centre,neutral,no_target,0.5937,,,,,,,,,,,,,,,,,
,,,,,612967,m,y,r,n,14,0,2025-04-01_21h16.34.741,VisualSearchFaces,2024.2.4,Win32,60.24096386,,,,,,,,926.206,926.3015,926.3016,928.3022,block2,f,1,1,37,77,37,1,0,top_right,threatening,no_target,1.5769,,,,,,,,,,,,,,,,,
,,,,,612967,m,y,r,n,14,0,2025-04-01_21h16.34.741,VisualSearchFaces,2024.2.4,Win32,60.24096386,,,,,,,,929.3061,929.4131,929.4132,931.4095,block2,j,1,1,38,78,1,1,1,top_left,neutral,friendly,0.7709,,,,,,,,,,,,,,,,,
,,,,,612967,m,y,r,n,14,0,2025-04-01_21h16.34.741,VisualSearchFaces,2024.2.4,Win32,60.24096386,,,,,,,,932.4102,932.5138,932.5139,934.5048,block2,j,1,1,39,79,10,1,1,centre,friendly,neutral,0.7751,,,,,,,,,,,,,,,,,
,,,,,612967,m,y,r,n,14,0,2025-04-01_21h16.34.741,VisualSearchFaces,2024.2.4,Win32,60.24096386,,,938.5179,944.4884,space,5.9388,,945.4886,945.5992,945.5992,947.589,block3,f,1,0,0,0,37,1,0,top_right,threatening,no_target,1.1226,,934.5099,938.5117,space,3.9692,,,,,,,,,,,,
,,,,,612967,m,y,r,n,14,0,2025-04-01_21h16.34.741,VisualSearchFaces,2024.2.4,Win32,60.24096386,,,,,,,,948.6023,948.7129,948.7129,950.7055,block3,j,1,0,1,1,10,1,1,centre,friendly,neutral,0.5892,,,,,,,,,,,,,,,,,
,,,,,612967,m,y,r,n,14,0,2025-04-01_21h16.34.741,VisualSearchFaces,2024.2.4,Win32,60.24096386,,,,,,,,951.7114,951.821,951.8212,953.8214,block3,j,0,0,2,2,32,1,0,top_right,friendly,no_target,0.7491,,,,,,,,,,,,,,,,,
,,,,,612967,m,y,r,n,14,0,2025-04-01_21h16.34.741,VisualSearchFaces,2024.2.4,Win32,60.24096386,,,,,,,,954.8278,954.9255,954.9256,956.918,block3,j,1,0,3,3,7,1,1,top_right,neutral,threatening,0.5503,,,,,,,,,,,,,,,,,
,,,,,612967,m,y,r,n,14,0,2025-04-01_21h16.34.741,VisualSearchFaces,2024.2.4,Win32,60.24096386,,,,,,,,957.921,958.0212,958.0212,960.0228,block3,f,1,0,4,4,24,1,0,bottom_right,neutral,no_target,0.6504,,,,,,,,,,,,,,,,,
,,,,,612967,m,y,r,n,14,0,2025-04-01_21h16.34.741,VisualSearchFaces,2024.2.4,Win32,60.24096386,,,,,,,,961.0217,961.1332,961.1332,963.1262,block3,f,0,0,5,5,14,1,1,bottom_right,friendly,neutral,1.3544,,,,,,,,,,,,,,,,,
,,,,,612967,m,y,r,n,14,0,2025-04-01_21h16.34.741,VisualSearchFaces,2024.2.4,Win32,60.24096386,,,,,,,,964.1385,964.2422,964.2423,966.2435,block3,j,0,0,6,6,20,1,0,centre,neutral,no_target,0.6593,,,,,,,,,,,,,,,,,
,,,,,612967,m,y,r,n,14,0,2025-04-01_21h16.34.741,VisualSearchFaces,2024.2.4,Win32,60.24096386,,,,,,,,967.2371,967.3356,967.3357,969.3381,block3,f,1,0,7,7,21,1,0,top_left,neutral,no_target,0.6028,,,,,,,,,,,,,,,,,
,,,,,612967,m,y,r,n,14,0,2025-04-01_21h16.34.741,VisualSearchFaces,2024.2.4,Win32,60.24096386,,,,,,,,970.3329,970.4295,970.4295,972.4212,block3,j,0,0,8,8,34,1,0,bottom_right,friendly,no_target,0.943,,,,,,,,,,,,,,,,,
,,,,,612967,m,y,r,n,14,0,2025-04-01_21h16.34.741,VisualSearchFaces,2024.2.4,Win32,60.24096386,,,,,,,,973.4256,973.5368,973.5369,975.5343,block3,f,1,0,9,9,26,1,0,top_left,neutral,no_target,0.6574,,,,,,,,,,,,,,,,,
,,,,,612967,m,y,r,n,14,0,2025-04-01_21h16.34.741,VisualSearchFaces,2024.2.4,Win32,60.24096386,,,,,,,,976.5376,976.6368,976.6368,978.6385,block3,j,1,0,10,10,18,1,1,bottom_left,threatening,neutral,0.7546,,,,,,,,,,,,,,,,,
,,,,,612967,m,y,r,n,14,0,2025-04-01_21h16.34.741,VisualSearchFaces,2024.2.4,Win32,60.24096386,,,,,,,,979.6422,979.7471,979.7472,981.7376,block3,j,0,0,11,11,33,1,0,bottom_left,friendly,no_target,0.7607,,,,,,,,,,,,,,,,,
,,,,,612967,m,y,r,n,14,0,2025-04-01_21h16.34.741,VisualSearchFaces,2024.2.4,Win32,60.24096386,,,,,,,,982.7425,982.8382,982.8384,984.8369,block3,j,0,0,12,12,31,1,0,top_left,friendly,no_target,1.069,,,,,,,,,,,,,,,,,
,,,,,612967,m,y,r,n,14,0,2025-04-01_21h16.34.741,VisualSearchFaces,2024.2.4,Win32,60.24096386,,,,,,,,985.835,985.9392,985.9393,987.9461,block3,j,1,0,13,13,1,1,1,top_left,neutral,friendly,0.7242,,,,,,,,,,,,,,,,,
,,,,,612967,m,y,r,n,14,0,2025-04-01_21h16.34.741,VisualSearchFaces,2024.2.4,Win32,60.24096386,,,,,,,,988.9439,989.0511,989.0511,991.049,block3,f,1,0,14,14,23,1,0,bottom_left,neutral,no_target,0.6509,,,,,,,,,,,,,,,,,
,,,,,612967,m,y,r,n,14,0,2025-04-01_21h16.34.741,VisualSearchFaces,2024.2.4,Win32,60.24096386,,,,,,,,992.0553,992.1554,992.1554,994.1541,block3,j,1,0,15,15,16,1,1,top_left,threatening,neutral,0.792,,,,,,,,,,,,,,,,,
,,,,,612967,m,y,r,n,14,0,2025-04-01_21h16.34.741,VisualSearchFaces,2024.2.4,Win32,60.24096386,,,,,,,,995.1597,995.27,995.2701,997.2702,block3,j,1,0,16,16,13,1,1,bottom_left,friendly,neutral,0.8613,,,,,,,,,,,,,,,,,
,,,,,612967,m,y,r,n,14,0,2025-04-01_21h16.34.741,VisualSearchFaces,2024.2.4,Win32,60.24096386,,,,,,,,998.2745,998.3738,998.3739,1000.3708,block3,j,1,0,17,17,15,1,1,centre,threatening,neutral,0.63,,,,,,,,,,,,,,,,,
,,,,,612967,m,y,r,n,14,0,2025-04-01_21h16.34.741,VisualSearchFaces,2024.2.4,Win32,60.24096386,,,,,,,,1001.3752,1001.472,1001.472,1003.4658,block3,j,0,0,18,18,30,1,0,centre,friendly,no_target,0.7797,,,,,,,,,,,,,,,,,
,,,,,612967,m,y,r,n,14,0,2025-04-01_21h16.34.741,VisualSearchFaces,2024.2.4,Win32,60.24096386,,,,,,,,1004.4697,1004.5815,1004.5816,1006.5834,block3,f,1,0,19,19,27,1,0,top_right,neutral,no_target,0.6686,,,,,,,,,,,,,,,,,
,,,,,612967,m,y,r,n,14,0,2025-04-01_21h16.34.741,VisualSearchFaces,2024.2.4,Win32,60.24096386,,,,,,,,1007.5853,1007.6862,1007.6863,1009.6835,block3,j,0,0,20,20,35,1,0,centre,threatening,no_target,0.8321,,,,,,,,,,,,,,,,,
,,,,,612967,m,y,r,n,14,0,2025-04-01_21h16.34.741,VisualSearchFaces,2024.2.4,Win32,60.24096386,,,,,,,,1010.6855,1010.7981,1010.7984,1012.8028,block3,j,1,0,21,21,4,1,1,bottom_right,neutral,friendly,0.8466,,,,,,,,,,,,,,,,,
,,,,,612967,m,y,r,n,14,0,2025-04-01_21h16.34.741,VisualSearchFaces,2024.2.4,Win32,60.24096386,,,,,,,,1013.805,1013.9159,1013.916,1015.9159,block3,j,1,0,22,22,19,1,1,bottom_right,threatening,neutral,1.1503,,,,,,,,,,,,,,,,,
,,,,,612967,m,y,r,n,14,0,2025-04-01_21h16.34.741,VisualSearchFaces,2024.2.4,Win32,60.24096386,,,,,,,,1016.9189,1017.0302,1017.0303,1019.0346,block3,j,1,0,23,23,0,1,1,centre,neutral,friendly,0.5911,,,,,,,,,,,,,,,,,
,,,,,612967,m,y,r,n,14,0,2025-04-01_21h16.34.741,VisualSearchFaces,2024.2.4,Win32,60.24096386,,,,,,,,1020.0359,1020.134,1020.134,1022.1318,block3,f,1,0,24,24,39,1,0,bottom_right,threatening,no_target,1.1132,,,,,,,,,,,,,,,,,
,,,,,612967,m,y,r,n,14,0,2025-04-01_21h16.34.741,VisualSearchFaces,2024.2.4,Win32,60.24096386,,,,,,,,1023.1345,1023.2338,1023.234,1025.2357,block3,j,1,0,25,25,9,1,1,bottom_right,neutral,threatening,0.8406,,,,,,,,,,,,,,,,,
,,,,,612967,m,y,r,n,14,0,2025-04-01_21h16.34.741,VisualSearchFaces,2024.2.4,Win32,60.24096386,,,,,,,,1026.2399,1026.3492,1026.3493,1028.3504,block3,j,1,0,26,26,12,1,1,top_right,friendly,neutral,0.6731,,,,,,,,,,,,,,,,,
,,,,,612967,m,y,r,n,14,0,2025-04-01_21h16.34.741,VisualSearchFaces,2024.2.4,Win32,60.24096386,,,,,,,,1029.3528,1029.4627,1029.4628,1031.4634,block3,j,0,0,27,27,36,1,0,top_left,threatening,no_target,0.8303,,,,,,,,,,,,,,,,,
,,,,,612967,m,y,r,n,14,0,2025-04-01_21h16.34.741,VisualSearchFaces,2024.2.4,Win32,60.24096386,,,,,,,,1032.4562,1032.5538,1032.5539,1034.5507,block3,j,1,0,28,28,5,1,1,centre,neutral,threatening,0.8482,,,,,,,,,,,,,,,,,
,,,,,612967,m,y,r,n,14,0,2025-04-01_21h16.34.741,VisualSearchFaces,2024.2.4,Win32,60.24096386,,,,,,,,1035.5508,1035.6641,1035.6642,1037.6666,block3,f,1,0,29,29,29,1,0,bottom_right,neutral,no_target,0.6442,,,,,,,,,,,,,,,,,
,,,,,612967,m,y,r,n,14,0,2025-04-01_21h16.34.741,VisualSearchFaces,2024.2.4,Win32,60.24096386,,,,,,,,1038.6694,1038.7686,1038.7688,1040.7676,block3,f,1,0,30,30,28,1,0,bottom_left,neutral,no_target,0.6529,,,,,,,,,,,,,,,,,
,,,,,612967,m,y,r,n,14,0,2025-04-01_21h16.34.741,VisualSearchFaces,2024.2.4,Win32,60.24096386,,,,,,,,1041.7662,1041.8712,1041.8712,1043.8698,block3,f,1,0,31,31,25,1,0,centre,neutral,no_target,0.5497,,,,,,,,,,,,,,,,,
,,,,,612967,m,y,r,n,14,0,2025-04-01_21h16.34.741,VisualSearchFaces,2024.2.4,Win32,60.24096386,,,,,,,,1044.8735,1044.9842,1044.9843,1046.9936,block3,j,1,0,32,32,6,1,1,top_left,neutral,threatening,0.4464,,,,,,,,,,,,,,,,,
,,,,,612967,m,y,r,n,14,0,2025-04-01_21h16.34.741,VisualSearchFaces,2024.2.4,Win32,60.24096386,,,,,,,,1047.9857,1048.0912,1048.0913,1050.0835,block3,j,0,0,33,33,38,1,0,bottom_left,threatening,no_target,0.7085,,,,,,,,,,,,,,,,,
,,,,,612967,m,y,r,n,14,0,2025-04-01_21h16.34.741,VisualSearchFaces,2024.2.4,Win32,60.24096386,,,,,,,,1051.0955,1051.202,1051.202,1053.2078,block3,f,1,0,34,34,22,1,0,top_right,neutral,no_target,0.7101,,,,,,,,,,,,,,,,,
,,,,,612967,m,y,r,n,14,0,2025-04-01_21h16.34.741,VisualSearchFaces,2024.2.4,Win32,60.24096386,,,,,,,,1054.2079,1054.3215,1054.3216,1056.3126,block3,j,1,0,35,35,2,1,1,top_right,neutral,friendly,0.6381,,,,,,,,,,,,,,,,,
,,,,,612967,m,y,r,n,14,0,2025-04-01_21h16.34.741,VisualSearchFaces,2024.2.4,Win32,60.24096386,,,,,,,,1057.3144,1057.4161,1057.4162,1059.4148,block3,j,1,0,36,36,3,1,1,bottom_left,neutral,friendly,0.6357,,,,,,,,,,,,,,,,,
,,,,,612967,m,y,r,n,14,0,2025-04-01_21h16.34.741,VisualSearchFaces,2024.2.4,Win32,60.24096386,,,,,,,,1060.4193,1060.5257,1060.5257,1062.5146,block3,j,1,0,37,37,8,1,1,bottom_left,neutral,threatening,0.4708,,,,,,,,,,,,,,,,,
,,,,,612967,m,y,r,n,14,0,2025-04-01_21h16.34.741,VisualSearchFaces,2024.2.4,Win32,60.24096386,,,,,,,,1063.5255,1063.6327,1063.6327,1065.6221,block3,j,1,0,38,38,17,1,1,top_right,threatening,neutral,0.6807,,,,,,,,,,,,,,,,,
,,,,,612967,m,y,r,n,14,0,2025-04-01_21h16.34.741,VisualSearchFaces,2024.2.4,Win32,60.24096386,,,,,,,,1066.6424,1066.7497,1066.7498,1068.749,block3,j,1,0,39,39,11,1,1,top_left,friendly,neutral,0.6721,,,,,,,,,,,,,,,,,
,,,,,612967,m,y,r,n,14,0,2025-04-01_21h16.34.741,VisualSearchFaces,2024.2.4,Win32,60.24096386,,,,,,,,1069.7543,1069.8667,1069.8668,1071.8572,block3,j,1,1,0,40,4,1,1,bottom_right,neutral,friendly,0.5225,,,,,,,,,,,,,,,,,
,,,,,612967,m,y,r,n,14,0,2025-04-01_21h16.34.741,VisualSearchFaces,2024.2.4,Win32,60.24096386,,,,,,,,1072.8698,1072.9732,1072.9733,1074.9687,block3,f,1,1,1,41,26,1,0,top_left,neutral,no_target,0.5817,,,,,,,,,,,,,,,,,
,,,,,612967,m,y,r,n,14,0,2025-04-01_21h16.34.741,VisualSearchFaces,2024.2.4,Win32,60.24096386,,,,,,,,1075.9713,1076.0809,1076.0809,1078.0851,block3,j,1,1,2,42,13,1,1,bottom_left,friendly,neutral,0.6728,,,,,,,,,,,,,,,,,
,,,,,612967,m,y,r,n,14,0,2025-04-01_21h16.34.741,VisualSearchFaces,2024.2.4,Win32,60.24096386,,,,,,,,1079.0855,1079.1976,1079.1978,1081.1869,block3,j,0,1,3,43,38,1,0,bottom_left,threatening,no_target,0.8334,,,,,,,,,,,,,,,,,
,,,,,612967,m,y,r,n,14,0,2025-04-01_21h16.34.741,VisualSearchFaces,2024.2.4,Win32,60.24096386,,,,,,,,1082.1902,1082.3027,1082.3027,1084.302,block3,j,1,1,4,44,16,1,1,top_left,threatening,neutral,0.667,,,,,,,,,,,,,,,,,
,,,,,612967,m,y,r,n,14,0,2025-04-01_21h16.34.741,VisualSearchFaces,2024.2.4,Win32,60.24096386,,,,,,,,1085.3076,1085.4145,1085.4146,1087.4143,block3,f,1,1,5,45,27,1,0,top_right,neutral,no_target,0.6904,,,,,,,,,,,,,,,,,
,,,,,612967,m,y,r,n,14,0,2025-04-01_21h16.34.741,VisualSearchFaces,2024.2.4,Win32,60.24096386,,,,,,,,1088.4084,1088.5045,1088.5048,1090.5079,block3,f,1,1,6,46,37,1,0,top_right,threatening,no_target,1.2178,,,,,,,,,,,,,,,,,
,,,,,612967,m,y,r,n,14,0,2025-04-01_21h16.34.741,VisualSearchFaces,2024.2.4,Win32,60.24096386,,,,,,,,1091.5117,1091.6246,1091.6246,1093.6216,block3,j,1,1,7,47,11,1,1,top_left,friendly,neutral,0.5609,,,,,,,,,,,,,,,,,
,,,,,612967,m,y,r,n,14,0,2025-04-01_21h16.34.741,VisualSearchFaces,2024.2.4,Win32,60.24096386,,,,,,,,1094.6201,1094.7176,1094.7176,1096.7278,block3,f,1,1,8,48,22,1,0,top_right,neutral,no_target,0.7025,,,,,,,,,,,,,,,,,
,,,,,612967,m,y,r,n,14,0,2025-04-01_21h16.34.741,VisualSearchFaces,2024.2.4,Win32,60.24096386,,,,,,,,1097.7183,1097.8162,1097.8162,1099.8153,block3,j,1,1,9,49,14,1,1,bottom_right,friendly,neutral,0.7168,,,,,,,,,,,,,,,,,
,,,,,612967,m,y,r,n,14,0,2025-04-01_21h16.34.741,VisualSearchFaces,2024.2.4,Win32,60.24096386,,,,,,,,1100.8127,1100.9238,1100.9238,1102.9143,block3,j,1,1,10,50,18,1,1,bottom_left,threatening,neutral,0.5867,,,,,,,,,,,,,,,,,
,,,,,612967,m,y,r,n,14,0,2025-04-01_21h16.34.741,VisualSearchFaces,2024.2.4,Win32,60.24096386,,,,,,,,1103.9262,1104.0299,1104.03,1106.0351,block3,j,1,1,11,51,5,1,1,centre,neutral,threatening,0.6772,,,,,,,,,,,,,,,,,
,,,,,612967,m,y,r,n,14,0,2025-04-01_21h16.34.741,VisualSearchFaces,2024.2.4,Win32,60.24096386,,,,,,,,1107.0404,1107.1365,1107.1365,1109.1361,block3,f,1,1,12,52,36,1,0,top_left,threatening,no_target,1.6497,,,,,,,,,,,,,,,,,
,,,,,612967,m,y,r,n,14,0,2025-04-01_21h16.34.741,VisualSearchFaces,2024.2.4,Win32,60.24096386,,,,,,,,1110.1306,1110.2396,1110.2397,1112.2382,block3,f,1,1,13,53,33,1,0,bottom_left,friendly,no_target,1.3241,,,,,,,,,,,,,,,,,
,,,,,612967,m,y,r,n,14,0,2025-04-01_21h16.34.741,VisualSearchFaces,2024.2.4,Win32,60.24096386,,,,,,,,1113.2404,1113.3387,1113.3387,1115.3359,block3,f,1,1,14,54,34,1,0,bottom_right,friendly,no_target,1.1357,,,,,,,,,,,,,,,,,
,,,,,612967,m,y,r,n,14,0,2025-04-01_21h16.34.741,VisualSearchFaces,2024.2.4,Win32,60.24096386,,,,,,,,1116.3314,1116.4309,1116.431,1118.4266,block3,j,1,1,15,55,17,1,1,top_right,threatening,neutral,0.5197,,,,,,,,,,,,,,,,,
,,,,,612967,m,y,r,n,14,0,2025-04-01_21h16.34.741,VisualSearchFaces,2024.2.4,Win32,60.24096386,,,,,,,,1119.4405,1119.5488,1119.5489,1121.5479,block3,f,1,1,16,56,35,1,0,centre,threatening,no_target,1.0361,,,,,,,,,,,,,,,,,
,,,,,612967,m,y,r,n,14,0,2025-04-01_21h16.34.741,VisualSearchFaces,2024.2.4,Win32,60.24096386,,,,,,,,1122.5502,1122.6632,1122.6633,1124.6533,block3,j,1,1,17,57,7,1,1,top_right,neutral,threatening,0.5982,,,,,,,,,,,,,,,,,
,,,,,612967,m,y,r,n,14,0,2025-04-01_21h16.34.741,VisualSearchFaces,2024.2.4,Win32,60.24096386,,,,,,,,1125.6588,1125.773,1125.773,1127.7688,block3,f,1,1,18,58,24,1,0,bottom_right,neutral,no_target,0.7678,,,,,,,,,,,,,,,,,
,,,,,612967,m,y,r,n,14,0,2025-04-01_21h16.34.741,VisualSearchFaces,2024.2.4,Win32,60.24096386,,,,,,,,1128.7744,1128.8827,1128.8829,1130.8815,block3,j,1,1,19,59,6,1,1,top_left,neutral,threatening,0.7473,,,,,,,,,,,,,,,,,
,,,,,612967,m,y,r,n,14,0,2025-04-01_21h16.34.741,VisualSearchFaces,2024.2.4,Win32,60.24096386,,,,,,,,1131.8849,1131.992,1131.9922,1133.9927,block3,f,1,1,20,60,29,1,0,bottom_right,neutral,no_target,0.6341,,,,,,,,,,,,,,,,,
,,,,,612967,m,y,r,n,14,0,2025-04-01_21h16.34.741,VisualSearchFaces,2024.2.4,Win32,60.24096386,,,,,,,,1134.9922,1135.0987,1135.0988,1137.1024,block3,f,1,1,21,61,39,1,0,bottom_right,threatening,no_target,1.1823,,,,,,,,,,,,,,,,,
,,,,,612967,m,y,r,n,14,0,2025-04-01_21h16.34.741,VisualSearchFaces,2024.2.4,Win32,60.24096386,,,,,,,,1138.1069,1138.2038,1138.2038,1140.1962,block3,j,0,1,22,62,31,1,0,top_left,friendly,no_target,0.605,,,,,,,,,,,,,,,,,
,,,,,612967,m,y,r,n,14,0,2025-04-01_21h16.34.741,VisualSearchFaces,2024.2.4,Win32,60.24096386,,,,,,,,1141.2044,1141.3157,1141.3158,1143.3176,block3,f,1,1,23,63,20,1,0,centre,neutral,no_target,0.6251,,,,,,,,,,,,,,,,,
,,,,,612967,m,y,r,n,14,0,2025-04-01_21h16.34.741,VisualSearchFaces,2024.2.4,Win32,60.24096386,,,,,,,,1144.321,1144.4301,1144.4302,1146.4187,block3,j,1,1,24,64,9,1,1,bottom_right,neutral,threatening,0.6235,,,,,,,,,,,,,,,,,
,,,,,612967,m,y,r,n,14,0,2025-04-01_21h16.34.741,VisualSearchFaces,2024.2.4,Win32,60.24096386,,,,,,,,1147.4248,1147.5219,1147.522,1149.5194,block3,j,1,1,25,65,8,1,1,bottom_left,neutral,threatening,0.4654,,,,,,,,,,,,,,,,,
,,,,,612967,m,y,r,n,14,0,2025-04-01_21h16.34.741,VisualSearchFaces,2024.2.4,Win32,60.24096386,,,,,,,,1150.5263,1150.6245,1150.6245,1152.6255,block3,j,1,1,26,66,10,1,1,centre,friendly,neutral,0.708,,,,,,,,,,,,,,,,,
,,,,,612967,m,y,r,n,14,0,2025-04-01_21h16.34.741,VisualSearchFaces,2024.2.4,Win32,60.24096386,,,,,,,,1153.6193,1153.7242,1153.7243,1155.7129,block3,f,1,1,27,67,25,1,0,centre,neutral,no_target,0.6934,,,,,,,,,,,,,,,,,
,,,,,612967,m,y,r,n,14,0,2025-04-01_21h16.34.741,VisualSearchFaces,2024.2.4,Win32,60.24096386,,,,,,,,1156.7222,1156.8312,1156.8312,1158.83,block3,j,1,1,28,68,1,1,1,top_left,neutral,friendly,0.8708,,,,,,,,,,,,,,,,,
,,,,,612967,m,y,r,n,14,0,2025-04-01_21h16.34.741,VisualSearchFaces,2024.2.4,Win32,60.24096386,,,,,,,,1159.8359,1159.9343,1159.9345,1161.9329,block3,f,1,1,29,69,28,1,0,bottom_left,neutral,no_target,0.8296,,,,,,,,,,,,,,,,,
,,,,,612967,m,y,r,n,14,0,2025-04-01_21h16.34.741,VisualSearchFaces,2024.2.4,Win32,60.24096386,,,,,,,,1162.9199,1163.0305,1163.0306,1165.0327,block3,j,1,1,30,70,2,1,1,top_right,neutral,friendly,0.5968,,,,,,,,,,,,,,,,,
,,,,,612967,m,y,r,n,14,0,2025-04-01_21h16.34.741,VisualSearchFaces,2024.2.4,Win32,60.24096386,,,,,,,,1166.0344,1166.1393,1166.1394,1168.1374,block3,f,1,1,31,71,23,1,0,bottom_left,neutral,no_target,0.6268,,,,,,,,,,,,,,,,,
,,,,,612967,m,y,r,n,14,0,2025-04-01_21h16.34.741,VisualSearchFaces,2024.2.4,Win32,60.24096386,,,,,,,,1169.1379,1169.2378,1169.2379,1171.2347,block3,f,1,1,32,72,21,1,0,top_left,neutral,no_target,0.4807,,,,,,,,,,,,,,,,,
,,,,,612967,m,y,r,n,14,0,2025-04-01_21h16.34.741,VisualSearchFaces,2024.2.4,Win32,60.24096386,,,,,,,,1172.239,1172.3427,1172.3428,1174.3461,block3,f,1,1,33,73,32,1,0,top_right,friendly,no_target,1.3075,,,,,,,,,,,,,,,,,
,,,,,612967,m,y,r,n,14,0,2025-04-01_21h16.34.741,VisualSearchFaces,2024.2.4,Win32,60.24096386,,,,,,,,1175.3354,1175.4442,1175.4443,1177.4415,block3,j,1,1,34,74,15,1,1,centre,threatening,neutral,0.6717,,,,,,,,,,,,,,,,,
,,,,,612967,m,y,r,n,14,0,2025-04-01_21h16.34.741,VisualSearchFaces,2024.2.4,Win32,60.24096386,,,,,,,,1178.4418,1178.5507,1178.5508,1180.5549,block3,f,1,1,35,75,30,1,0,centre,friendly,no_target,1.2431,,,,,,,,,,,,,,,,,
,,,,,612967,m,y,r,n,14,0,2025-04-01_21h16.34.741,VisualSearchFaces,2024.2.4,Win32,60.24096386,,,,,,,,1181.5534,1181.6628,1181.6628,1183.6638,block3,j,1,1,36,76,19,1,1,bottom_right,threatening,neutral,0.7969,,,,,,,,,,,,,,,,,
,,,,,612967,m,y,r,n,14,0,2025-04-01_21h16.34.741,VisualSearchFaces,2024.2.4,Win32,60.24096386,,,,,,,,1184.6682,1184.7671,1184.7672,1186.7608,block3,j,1,1,37,77,12,1,1,top_right,friendly,neutral,0.5248,,,,,,,,,,,,,,,,,
,,,,,612967,m,y,r,n,14,0,2025-04-01_21h16.34.741,VisualSearchFaces,2024.2.4,Win32,60.24096386,,,,,,,,1187.7733,1187.8796,1187.8797,1189.8686,block3,j,1,1,38,78,3,1,1,bottom_left,neutral,friendly,0.4933,,,,,,,,,,,,,,,,,
,,,,,612967,m,y,r,n,14,0,2025-04-01_21h16.34.741,VisualSearchFaces,2024.2.4,Win32,60.24096386,,,,,,,,1190.872,1190.9694,1190.9695,1192.9678,block3,j,1,1,39,79,0,1,1,centre,neutral,friendly,0.4501,,,,,,,,,,,,,,,,,
,,,,,612967,m,y,r,n,14,0,2025-04-01_21h16.34.741,VisualSearchFaces,2024.2.4,Win32,60.24096386,,,1198.0439,1206.3028,space,8.2245,,1207.3089,1207.4118,1207.4119,1209.4006,block4,f,1,0,0,0,38,1,0,bottom_left,threatening,no_target,0.8422,,1192.9722,1198.0373,space,5.0343,,,,,,,,,,,,
,,,,,612967,m,y,r,n,14,0,2025-04-01_21h16.34.741,VisualSearchFaces,2024.2.4,Win32,60.24096386,,,,,,,,1210.4049,1210.5184,1210.5184,1212.517,block4,f,1,0,1,1,21,1,0,top_left,neutral,no_target,0.6841,,,,,,,,,,,,,,,,,
,,,,,612967,m,y,r,n,14,0,2025-04-01_21h16.34.741,VisualSearchFaces,2024.2.4,Win32,60.24096386,,,,,,,,1213.519,1213.63,1213.6301,1215.631,block4,f,1,0,2,2,36,1,0,top_left,threatening,no_target,1.3525,,,,,,,,,,,,,,,,,
,,,,,612967,m,y,r,n,14,0,2025-04-01_21h16.34.741,VisualSearchFaces,2024.2.4,Win32,60.24096386,,,,,,,,1216.6351,1216.742,1216.7421,1218.7349,block4,f,1,0,3,3,23,1,0,bottom_left,neutral,no_target,0.658,,,,,,,,,,,,,,,,,
,,,,,612967,m,y,r,n,14,0,2025-04-01_21h16.34.741,VisualSearchFaces,2024.2.4,Win32,60.24096386,,,,,,,,1219.7393,1219.847,1219.8471,1221.8465,block4,f,1,0,4,4,31,1,0,top_left,friendly,no_target,0.8057,,,,,,,,,,,,,,,,,
,,,,,612967,m,y,r,n,14,0,2025-04-01_21h16.34.741,VisualSearchFaces,2024.2.4,Win32,60.24096386,,,,,,,,1222.8517,1222.9632,1222.9633,1224.9553,block4,j,1,0,5,5,13,1,1,bottom_left,friendly,neutral,0.7452,,,,,,,,,,,,,,,,,
,,,,,612967,m,y,r,n,14,0,2025-04-01_21h16.34.741,VisualSearchFaces,2024.2.4,Win32,60.24096386,,,,,,,,1225.9598,1226.0599,1226.0599,1228.0626,block4,j,1,0,6,6,0,1,1,centre,neutral,friendly,0.4228,,,,,,,,,,,,,,,,,
,,,,,612967,m,y,r,n,14,0,2025-04-01_21h16.34.741,VisualSearchFaces,2024.2.4,Win32,60.24096386,,,,,,,,1229.0588,1229.1568,1229.1568,1231.1455,block4,j,1,0,7,7,15,1,1,centre,threatening,neutral,0.6622,,,,,,,,,,,,,,,,,
,,,,,612967,m,y,r,n,14,0,2025-04-01_21h16.34.741,VisualSearchFaces,2024.2.4,Win32,60.24096386,,,,,,,,1232.156,1232.2608,1232.2608,1234.2554,block4,j,0,0,8,8,30,1,0,centre,friendly,no_target,0.5514,,,,,,,,,,,,,,,,,
,,,,,612967,m,y,r,n,14,0,2025-04-01_21h16.34.741,VisualSearchFaces,2024.2.4,Win32,60.24096386,,,,,,,,1235.2721,1235.3765,1235.3766,1237.3679,block4,j,0,0,9,9,33,1,0,bottom_left,friendly,no_target,0.658,,,,,,,,,,,,,,,,,
,,,,,612967,m,y,r,n,14,0,2025-04-01_21h16.34.741,VisualSearchFaces,2024.2.4,Win32,60.24096386,,,,,,,,1238.3721,1238.4787,1238.4788,1240.479,block4,f,1,0,10,10,29,1,0,bottom_right,neutral,no_target,0.7343,,,,,,,,,,,,,,,,,
,,,,,612967,m,y,r,n,14,0,2025-04-01_21h16.34.741,VisualSearchFaces,2024.2.4,Win32,60.24096386,,,,,,,,1241.4816,1241.587,1241.5871,1243.5802,block4,j,1,0,11,11,6,1,1,top_left,neutral,threatening,0.8257,,,,,,,,,,,,,,,,,
,,,,,612967,m,y,r,n,14,0,2025-04-01_21h16.34.741,VisualSearchFaces,2024.2.4,Win32,60.24096386,,,,,,,,1244.5838,1244.6816,1244.6817,1246.6709,block4,j,1,0,12,12,14,1,1,bottom_right,friendly,neutral,0.621,,,,,,,,,,,,,,,,,
,,,,,612967,m,y,r,n,14,0,2025-04-01_21h16.34.741,VisualSearchFaces,2024.2.4,Win32,60.24096386,,,,,,,,1247.689,1247.7885,1247.7886,1249.7838,block4,j,1,0,13,13,4,1,1,bottom_right,neutral,friendly,0.5996,,,,,,,,,,,,,,,,,
,,,,,612967,m,y,r,n,14,0,2025-04-01_21h16.34.741,VisualSearchFaces,2024.2.4,Win32,60.24096386,,,,,,,,1250.7894,1250.8997,1250.8999,1252.8882,block4,j,1,0,14,14,8,1,1,bottom_left,neutral,threatening,0.6298,,,,,,,,,,,,,,,,,
,,,,,612967,m,y,r,n,14,0,2025-04-01_21h16.34.741,VisualSearchFaces,2024.2.4,Win32,60.24096386,,,,,,,,1253.8977,1254.0053,1254.0055,1256.0056,block4,j,0,0,15,15,34,1,0,bottom_right,friendly,no_target,1.1085,,,,,,,,,,,,,,,,,
,,,,,612967,m,y,r,n,14,0,2025-04-01_21h16.34.741,VisualSearchFaces,2024.2.4,Win32,60.24096386,,,,,,,,1257.0046,1257.1118,1257.1119,1259.1051,block4,j,1,0,16,16,18,1,1,bottom_left,threatening,neutral,0.5303,,,,,,,,,,,,,,,,,
,,,,,612967,m,y,r,n,14,0,2025-04-01_21h16.34.741,VisualSearchFaces,2024.2.4,Win32,60.24096386,,,,,,,,1260.106,1260.2045,1260.2045,1262.1955,block4,j,1,0,17,17,5,1,1,centre,neutral,threatening,0.5097,,,,,,,,,,,,,,,,,
,,,,,612967,m,y,r,n,14,0,2025-04-01_21h16.34.741,VisualSearchFaces,2024.2.4,Win32,60.24096386,,,,,,,,1263.2072,1263.3134,1263.3135,1265.3168,block4,f,1,0,18,18,26,1,0,top_left,neutral,no_target,0.487,,,,,,,,,,,,,,,,,
,,,,,612967,m,y,r,n,14,0,2025-04-01_21h16.34.741,VisualSearchFaces,2024.2.4,Win32,60.24096386,,,,,,,,1266.3221,1266.4341,1266.4342,1268.4332,block4,f,1,0,19,19,24,1,0,bottom_right,neutral,no_target,0.5996,,,,,,,,,,,,,,,,,
,,,,,612967,m,y,r,n,14,0,2025-04-01_21h16.34.741,VisualSearchFaces,2024.2.4,Win32,60.24096386,,,,,,,,1269.4386,1269.5462,1269.5462,1271.5386,block4,j,1,0,20,20,7,1,1,top_right,neutral,threatening,0.6712,,,,,,,,,,,,,,,,,
,,,,,612967,m,y,r,n,14,0,2025-04-01_21h16.34.741,VisualSearchFaces,2024.2.4,Win32,60.24096386,,,,,,,,1272.5475,1272.6545,1272.6546,1274.6498,block4,j,0,0,21,21,37,1,0,top_right,threatening,no_target,1.0829,,,,,,,,,,,,,,,,,
,,,,,612967,m,y,r,n,14,0,2025-04-01_21h16.34.741,VisualSearchFaces,2024.2.4,Win32,60.24096386,,,,,,,,1275.6555,1275.7631,1275.7631,1277.7612,block4,f,1,0,22,22,20,1,0,centre,neutral,no_target,0.7986,,,,,,,,,,,,,,,,,
,,,,,612967,m,y,r,n,14,0,2025-04-01_21h16.34.741,VisualSearchFaces,2024.2.4,Win32,60.24096386,,,,,,,,1278.7679,1278.8804,1278.8804,1280.8748,block4,f,1,0,23,23,35,1,0,centre,threatening,no_target,1.1132,,,,,,,,,,,,,,,,,
,,,,,612967,m,y,r,n,14,0,2025-04-01_21h16.34.741,VisualSearchFaces,2024.2.4,Win32,60.24096386,,,,,,,,1281.8762,1281.9735,1281.9735,1283.9784,block4,j,1,0,24,24,17,1,1,top_right,threatening,neutral,0.6787,,,,,,,,,,,,,,,,,
,,,,,612967,m,y,r,n,14,0,2025-04-01_21h16.34.741,VisualSearchFaces,2024.2.4,Win32,60.24096386,,,,,,,,1284.9716,1285.0764,1285.0765,1287.0799,block4,f,1,0,25,25,27,1,0,top_right,neutral,no_target,0.7789,,,,,,,,,,,,,,,,,
,,,,,612967,m,y,r,n,14,0,2025-04-01_21h16.34.741,VisualSearchFaces,2024.2.4,Win32,60.24096386,,,,,,,,1288.0711,1288.1794,1288.1794,1290.1812,block4,f,1,0,26,26,32,1,0,top_right,friendly,no_target,1.1279,,,,,,,,,,,,,,,,,
,,,,,612967,m,y,r,n,14,0,2025-04-01_21h16.34.741,VisualSearchFaces,2024.2.4,Win32,60.24096386,,,,,,,,1291.1828,1291.2827,1291.2828,1293.2746,block4,j,1,0,27,27,3,1,1,bottom_left,neutral,friendly,0.8908,,,,,,,,,,,,,,,,,
,,,,,612967,m,y,r,n,14,0,2025-04-01_21h16.34.741,VisualSearchFaces,2024.2.4,Win32,60.24096386,,,,,,,,1294.2741,1294.3721,1294.3722,1296.3668,block4,j,1,0,28,28,9,1,1,bottom_right,neutral,threatening,0.8629,,,,,,,,,,,,,,,,,
,,,,,612967,m,y,r,n,14,0,2025-04-01_21h16.34.741,VisualSearchFaces,2024.2.4,Win32,60.24096386,,,,,,,,1297.3725,1297.4714,1297.4715,1299.4614,block4,j,1,0,29,29,11,1,1,top_left,friendly,neutral,0.8756,,,,,,,,,,,,,,,,,
,,,,,612967,m,y,r,n,14,0,2025-04-01_21h16.34.741,VisualSearchFaces,2024.2.4,Win32,60.24096386,,,,,,,,1300.4758,1300.5778,1300.5778,1302.5671,block4,f,1,0,30,30,28,1,0,bottom_left,neutral,no_target,0.76,,,,,,,,,,,,,,,,,
,,,,,612967,m,y,r,n,14,0,2025-04-01_21h16.34.741,VisualSearchFaces,2024.2.4,Win32,60.24096386,,,,,,,,1303.5829,1303.6889,1303.689,1305.6891,block4,j,1,0,31,31,12,1,1,top_right,friendly,neutral,0.7797,,,,,,,,,,,,,,,,,
,,,,,612967,m,y,r,n,14,0,2025-04-01_21h16.34.741,VisualSearchFaces,2024.2.4,Win32,60.24096386,,,,,,,,1306.7015,1306.806,1306.8061,1308.7946,block4,j,1,0,32,32,19,1,1,bottom_right,threatening,neutral,1.0094,,,,,,,,,,,,,,,,,
,,,,,612967,m,y,r,n,14,0,2025-04-01_21h16.34.741,VisualSearchFaces,2024.2.4,Win32,60.24096386,,,,,,,,1309.8005,1309.9041,1309.9042,1311.8999,block4,f,1,0,33,33,22,1,0,top_right,neutral,no_target,0.7003,,,,,,,,,,,,,,,,,
,,,,,612967,m,y,r,n,14,0,2025-04-01_21h16.34.741,VisualSearchFaces,2024.2.4,Win32,60.24096386,,,,,,,,1312.9045,1313.0041,1313.0043,1315,block4,f,1,0,34,34,39,1,0,bottom_right,threatening,no_target,1.9468,,,,,,,,,,,,,,,,,
,,,,,612967,m,y,r,n,14,0,2025-04-01_21h16.34.741,VisualSearchFaces,2024.2.4,Win32,60.24096386,,,,,,,,1316.0033,1316.0999,1316.1,1318.0929,block4,j,1,0,35,35,10,1,1,centre,friendly,neutral,1.2439,,,,,,,,,,,,,,,,,
,,,,,612967,m,y,r,n,14,0,2025-04-01_21h16.34.741,VisualSearchFaces,2024.2.4,Win32,60.24096386,,,,,,,,1319.1049,1319.2072,1319.2073,1321.1992,block4,j,1,0,36,36,16,1,1,top_left,threatening,neutral,0.6395,,,,,,,,,,,,,,,,,
,,,,,612967,m,y,r,n,14,0,2025-04-01_21h16.34.741,VisualSearchFaces,2024.2.4,Win32,60.24096386,,,,,,,,1322.2051,1322.3113,1322.3114,1324.3105,block4,j,1,0,37,37,1,1,1,top_left,neutral,friendly,0.5359,,,,,,,,,,,,,,,,,
,,,,,612967,m,y,r,n,14,0,2025-04-01_21h16.34.741,VisualSearchFaces,2024.2.4,Win32,60.24096386,,,,,,,,1325.3153,1325.4275,1325.4276,1327.4322,block4,j,1,0,38,38,2,1,1,top_right,neutral,friendly,0.4844,,,,,,,,,,,,,,,,,
,,,,,612967,m,y,r,n,14,0,2025-04-01_21h16.34.741,VisualSearchFaces,2024.2.4,Win32,60.24096386,,,,,,,,1328.4336,1328.5328,1328.5328,1330.5332,block4,f,1,0,39,39,25,1,0,centre,neutral,no_target,0.5213,,,,,,,,,,,,,,,,,
,,,,,612967,m,y,r,n,14,0,2025-04-01_21h16.34.741,VisualSearchFaces,2024.2.4,Win32,60.24096386,,,,,,,,1331.5383,1331.6487,1331.6488,1333.64,block4,j,0,1,0,40,39,1,0,bottom_right,threatening,no_target,1.1101,,,,,,,,,,,,,,,,,
,,,,,612967,m,y,r,n,14,0,2025-04-01_21h16.34.741,VisualSearchFaces,2024.2.4,Win32,60.24096386,,,,,,,,1334.6539,1334.7643,1334.7643,1336.7543,block4,j,1,1,1,41,6,1,1,top_left,neutral,threatening,0.5625,,,,,,,,,,,,,,,,,
,,,,,612967,m,y,r,n,14,0,2025-04-01_21h16.34.741,VisualSearchFaces,2024.2.4,Win32,60.24096386,,,,,,,,1337.7675,1337.8747,1337.8748,1339.8658,block4,f,1,1,2,42,31,1,0,top_left,friendly,no_target,0.9638,,,,,,,,,,,,,,,,,
,,,,,612967,m,y,r,n,14,0,2025-04-01_21h16.34.741,VisualSearchFaces,2024.2.4,Win32,60.24096386,,,,,,,,1340.8706,1340.979,1340.9791,1342.9771,block4,j,1,1,3,43,15,1,1,centre,threatening,neutral,0.6751,,,,,,,,,,,,,,,,,
,,,,,612967,m,y,r,n,14,0,2025-04-01_21h16.34.741,VisualSearchFaces,2024.2.4,Win32,60.24096386,,,,,,,,1343.9787,1344.0777,1344.0778,1346.0766,block4,f,1,1,4,44,33,1,0,bottom_left,friendly,no_target,1.3184,,,,,,,,,,,,,,,,,
,,,,,612967,m,y,r,n,14,0,2025-04-01_21h16.34.741,VisualSearchFaces,2024.2.4,Win32,60.24096386,,,,,,,,1347.0818,1347.1873,1347.1874,1349.1829,block4,j,1,1,5,45,17,1,1,top_right,threatening,neutral,0.6977,,,,,,,,,,,,,,,,,
,,,,,612967,m,y,r,n,14,0,2025-04-01_21h16.34.741,VisualSearchFaces,2024.2.4,Win32,60.24096386,,,,,,,,1350.1886,1350.2975,1350.2975,1352.2986,block4,j,1,1,6,46,2,1,1,top_right,neutral,friendly,0.5511,,,,,,,,,,,,,,,,,
,,,,,612967,m,y,r,n,14,0,2025-04-01_21h16.34.741,VisualSearchFaces,2024.2.4,Win32,60.24096386,,,,,,,,1353.3011,1353.4154,1353.4154,1355.4161,block4,f,1,1,7,47,21,1,0,top_left,neutral,no_target,0.6997,,,,,,,,,,,,,,,,,
,,,,,612967,m,y,r,n,14,0,2025-04-01_21h16.34.741,VisualSearchFaces,2024.2.4,Win32,60.24096386,,,,,,,,1356.4201,1356.516,1356.5161,1358.5137,block4,j,1,1,8,48,19,1,1,bottom_right,threatening,neutral,1.0295,,,,,,,,,,,,,,,,,
,,,,,612967,m,y,r,n,14,0,2025-04-01_21h16.34.741,VisualSearchFaces,2024.2.4,Win32,60.24096386,,,,,,,,1359.5115,1359.6269,1359.6269,1361.6272,block4,f,1,1,9,49,26,1,0,top_left,neutral,no_target,0.7017,,,,,,,,,,,,,,,,,
,,,,,612967,m,y,r,n,14,0,2025-04-01_21h16.34.741,VisualSearchFaces,2024.2.4,Win32,60.24096386,,,,,,,,1362.6305,1362.7312,1362.7313,1364.7225,block4,j,1,1,10,50,12,1,1,top_right,friendly,neutral,0.6507,,,,,,,,,,,,,,,,,
,,,,,612967,m,y,r,n,14,0,2025-04-01_21h16.34.741,VisualSearchFaces,2024.2.4,Win32,60.24096386,,,,,,,,1365.7316,1365.8436,1365.8437,1367.8494,block4,j,1,1,11,51,13,1,1,bottom_left,friendly,neutral,0.7006,,,,,,,,,,,,,,,,,
,,,,,612967,m,y,r,n,14,0,2025-04-01_21h16.34.741,VisualSearchFaces,2024.2.4,Win32,60.24096386,,,,,,,,1368.8358,1368.9439,1368.944,1370.9316,block4,j,0,1,12,52,35,1,0,centre,threatening,no_target,0.7378,,,,,,,,,,,,,,,,,
,,,,,612967,m,y,r,n,14,0,2025-04-01_21h16.34.741,VisualSearchFaces,2024.2.4,Win32,60.24096386,,,,,,,,1371.9416,1372.0445,1372.0447,1374.0484,block4,j,0,1,13,53,34,1,0,bottom_right,friendly,no_target,0.7177,,,,,,,,,,,,,,,,,
,,,,,612967,m,y,r,n,14,0,2025-04-01_21h16.34.741,VisualSearchFaces,2024.2.4,Win32,60.24096386,,,,,,,,1375.0541,1375.1536,1375.1536,1377.1433,block4,f,1,1,14,54,27,1,0,top_right,neutral,no_target,0.4898,,,,,,,,,,,,,,,,,
,,,,,612967,m,y,r,n,14,0,2025-04-01_21h16.34.741,VisualSearchFaces,2024.2.4,Win32,60.24096386,,,,,,,,1378.1581,1378.2608,1378.2608,1380.2595,block4,j,1,1,15,55,7,1,1,top_right,neutral,threatening,0.6682,,,,,,,,,,,,,,,,,
,,,,,612967,m,y,r,n,14,0,2025-04-01_21h16.34.741,VisualSearchFaces,2024.2.4,Win32,60.24096386,,,,,,,,1381.2629,1381.3829,1381.383,1383.3826,block4,f,1,1,16,56,23,1,0,bottom_left,neutral,no_target,0.7675,,,,,,,,,,,,,,,,,
,,,,,612967,m,y,r,n,14,0,2025-04-01_21h16.34.741,VisualSearchFaces,2024.2.4,Win32,60.24096386,,,,,,,,1384.3695,1384.4864,1384.4864,1386.4783,block4,f,1,1,17,57,28,1,0,bottom_left,neutral,no_target,0.4811,,,,,,,,,,,,,,,,,
,,,,,612967,m,y,r,n,14,0,2025-04-01_21h16.34.741,VisualSearchFaces,2024.2.4,Win32,60.24096386,,,,,,,,1387.4873,1387.5869,1387.587,1389.5816,block4,f,1,1,18,58,25,1,0,centre,neutral,no_target,0.5075,,,,,,,,,,,,,,,,,
,,,,,612967,m,y,r,n,14,0,2025-04-01_21h16.34.741,VisualSearchFaces,2024.2.4,Win32,60.24096386,,,,,,,,1390.584,1390.6824,1390.6824,1392.6831,block4,j,1,1,19,59,0,1,1,centre,neutral,friendly,0.552,,,,,,,,,,,,,,,,,
,,,,,612967,m,y,r,n,14,0,2025-04-01_21h16.34.741,VisualSearchFaces,2024.2.4,Win32,60.24096386,,,,,,,,1393.6867,1393.8074,1393.8075,1395.8099,block4,j,0,1,20,60,36,1,0,top_left,threatening,no_target,0.7343,,,,,,,,,,,,,,,,,
,,,,,612967,m,y,r,n,14,0,2025-04-01_21h16.34.741,VisualSearchFaces,2024.2.4,Win32,60.24096386,,,,,,,,1396.8021,1396.9009,1396.9013,1398.8927,block4,j,1,1,21,61,5,1,1,centre,neutral,threatening,0.5506,,,,,,,,,,,,,,,,,
,,,,,612967,m,y,r,n,14,0,2025-04-01_21h16.34.741,VisualSearchFaces,2024.2.4,Win32,60.24096386,,,,,,,,1399.8945,1399.9958,1399.996,1401.9925,block4,j,1,1,22,62,14,1,1,bottom_right,friendly,neutral,1.0867,,,,,,,,,,,,,,,,,
,,,,,612967,m,y,r,n,14,0,2025-04-01_21h16.34.741,VisualSearchFaces,2024.2.4,Win32,60.24096386,,,,,,,,1403.0003,1403.1107,1403.1108,1405.1117,block4,j,1,1,23,63,3,1,1,bottom_left,neutral,friendly,0.4711,,,,,,,,,,,,,,,,,
,,,,,612967,m,y,r,n,14,0,2025-04-01_21h16.34.741,VisualSearchFaces,2024.2.4,Win32,60.24096386,,,,,,,,1406.1046,1406.2099,1406.2101,1408.2113,block4,f,1,1,24,64,38,1,0,bottom_left,threatening,no_target,1.0003,,,,,,,,,,,,,,,,,
,,,,,612967,m,y,r,n,14,0,2025-04-01_21h16.34.741,VisualSearchFaces,2024.2.4,Win32,60.24096386,,,,,,,,1409.2037,1409.316,1409.3161,1411.3147,block4,j,1,1,25,65,9,1,1,bottom_right,neutral,threatening,0.7433,,,,,,,,,,,,,,,,,
,,,,,612967,m,y,r,n,14,0,2025-04-01_21h16.34.741,VisualSearchFaces,2024.2.4,Win32,60.24096386,,,,,,,,1412.3215,1412.4221,1412.4222,1414.414,block4,j,1,1,26,66,18,1,1,bottom_left,threatening,neutral,0.5289,,,,,,,,,,,,,,,,,
,,,,,612967,m,y,r,n,14,0,2025-04-01_21h16.34.741,VisualSearchFaces,2024.2.4,Win32,60.24096386,,,,,,,,1415.4189,1415.5289,1415.5289,1417.53,block4,f,1,1,27,67,30,1,0,centre,friendly,no_target,0.9356,,,,,,,,,,,,,,,,,
,,,,,612967,m,y,r,n,14,0,2025-04-01_21h16.34.741,VisualSearchFaces,2024.2.4,Win32,60.24096386,,,,,,,,1418.5338,1418.6367,1418.6368,1420.6392,block4,j,1,1,28,68,16,1,1,top_left,threatening,neutral,0.5909,,,,,,,,,,,,,,,,,
,,,,,612967,m,y,r,n,14,0,2025-04-01_21h16.34.741,VisualSearchFaces,2024.2.4,Win32,60.24096386,,,,,,,,1421.6429,1421.7447,1421.7448,1423.7434,block4,f,1,1,29,69,24,1,0,bottom_right,neutral,no_target,0.7991,,,,,,,,,,,,,,,,,
,,,,,612967,m,y,r,n,14,0,2025-04-01_21h16.34.741,VisualSearchFaces,2024.2.4,Win32,60.24096386,,,,,,,,1424.741,1424.8445,1424.8446,1426.8446,block4,j,1,1,30,70,1,1,1,top_left,neutral,friendly,0.7671,,,,,,,,,,,,,,,,,
,,,,,612967,m,y,r,n,14,0,2025-04-01_21h16.34.741,VisualSearchFaces,2024.2.4,Win32,60.24096386,,,,,,,,1427.8448,1427.9663,1427.9664,1429.9609,block4,f,1,1,31,71,37,1,0,top_right,threatening,no_target,1.474,,,,,,,,,,,,,,,,,
,,,,,612967,m,y,r,n,14,0,2025-04-01_21h16.34.741,VisualSearchFaces,2024.2.4,Win32,60.24096386,,,,,,,,1430.9609,1431.0616,1431.0616,1433.0551,block4,f,1,1,32,72,29,1,0,bottom_right,neutral,no_target,0.7171,,,,,,,,,,,,,,,,,
,,,,,612967,m,y,r,n,14,0,2025-04-01_21h16.34.741,VisualSearchFaces,2024.2.4,Win32,60.24096386,,,,,,,,1434.0711,1434.1731,1434.1731,1436.1635,block4,j,1,1,33,73,8,1,1,bottom_left,neutral,threatening,0.79,,,,,,,,,,,,,,,,,
,,,,,612967,m,y,r,n,14,0,2025-04-01_21h16.34.741,VisualSearchFaces,2024.2.4,Win32,60.24096386,,,,,,,,1437.1674,1437.2817,1437.282,1439.2764,block4,j,1,1,34,74,11,1,1,top_left,friendly,neutral,0.6235,,,,,,,,,,,,,,,,,
,,,,,612967,m,y,r,n,14,0,2025-04-01_21h16.34.741,VisualSearchFaces,2024.2.4,Win32,60.24096386,,,,,,,,1440.2761,1440.3755,1440.3756,1442.3758,block4,f,1,1,35,75,20,1,0,centre,neutral,no_target,0.6364,,,,,,,,,,,,,,,,,
,,,,,612967,m,y,r,n,14,0,2025-04-01_21h16.34.741,VisualSearchFaces,2024.2.4,Win32,60.24096386,,,,,,,,1443.3799,1443.485,1443.4851,1445.4813,block4,f,1,1,36,76,32,1,0,top_right,friendly,no_target,1.1806,,,,,,,,,,,,,,,,,
,,,,,612967,m,y,r,n,14,0,2025-04-01_21h16.34.741,VisualSearchFaces,2024.2.4,Win32,60.24096386,,,,,,,,1446.4816,1446.601,1446.6011,1448.6012,block4,j,0,1,37,77,22,1,0,top_right,neutral,no_target,0.6238,,,,,,,,,,,,,,,,,
,,,,,612967,m,y,r,n,14,0,2025-04-01_21h16.34.741,VisualSearchFaces,2024.2.4,Win32,60.24096386,,,,,,,,1449.5934,1449.7056,1449.7057,1451.7013,block4,j,1,1,38,78,4,1,1,bottom_right,neutral,friendly,0.7154,,,,,,,,,,,,,,,,,
,,,,,612967,m,y,r,n,14,0,2025-04-01_21h16.34.741,VisualSearchFaces,2024.2.4,Win32,60.24096386,,,,,,,,1452.6993,1452.8081,1452.8082,1454.795,block4,j,1,1,39,79,10,1,1,centre,friendly,neutral,0.8426,,,,,,,,,,,,,,,,,
,,,,,612967,m,y,r,n,14,0,2025-04-01_21h16.34.741,VisualSearchFaces,2024.2.4,Win32,60.24096386,,,,,,,,,,,,,,,,,,,,,,,,,,1454.7985,1469.1656,space,14.3383,,1469.1675,1522.4368,Lines with plus signs and two different items containing curves.,1,[1522.4362999999523],[1522.4362999999523],,,,,
,,,,,612967,m,y,r,n,14,0,2025-04-01_21h16.34.741,VisualSearchFaces,2024.2.4,Win32,60.24096386,,,,,,,,,,,,,,,,,,,,,,,,,,,,,,,,,,,,,1522.4371,1532.5145,space,10.0535,
