Welcome.started,Welcome.stopped,keyboard_space_welcome.keys,keyboard_space_welcome.rt,keyboard_space_welcome.duration,participant,gender,(corrected) normal vision,handedness,exp vse,session,skip_intro,date,expName,psychopyVersion,OS,frameRate,stimulus_exposure.started,stimulus_exposure.stopped,Block_intro.started,Block_intro.stopped,keyboard_space.keys,keyboard_space.rt,keyboard_space.duration,Stimulus.started,Stimulus.stopped,fixation_ending.started,fixation_ending.stopped,block_id,keyboard_response.keys,keyboard_response.corr,trials.thisRepN,trials.thisTrialN,trials.thisN,trials.thisIndex,trials.ran,target_presence,target_position,background_emotion,target_emotion,keyboard_response.rt,keyboard_response.duration,Block_outro.started,Block_outro.stopped,keyboard_space_end.keys,keyboard_space_end.rt,keyboard_space_end.duration,Question_about_stimulus.started,Question_about_stimulus.stopped,textbox_response.text,button.numClicks,button.timesOn,button.timesOff,Thanks.started,Thanks.stopped,keyboard_space_goodbye.keys,keyboard_space_goodbye.rt,keyboard_space_goodbye.duration
0.001,55.8143,space,55.6765,,613484,m,y,r,n,12,0,2025-04-05_20h49.04.380,VisualSearchFaces,2024.2.4,Win32,58.82352941,,,,,,,,,,,,,,,,,,,,,,,,,,,,,,,,,,,,,,,,,
,,,,,613484,m,y,r,n,12,0,2025-04-05_20h49.04.380,VisualSearchFaces,2024.2.4,Win32,58.82352941,76.9663,79.9779,79.9995,121.1559,space,41.109,,122.1617,122.4225,122.4229,124.4235,practice1,,0,0,0,0,9,1,1,bottom_right,neutral,threatening,,,,,,,,,,,,,,,,,,
,,,,,613484,m,y,r,n,12,0,2025-04-05_20h49.04.380,VisualSearchFaces,2024.2.4,Win32,58.82352941,,,,,,,,125.4242,125.6876,125.6877,127.6878,practice1,j,1,0,1,1,3,1,1,bottom_left,neutral,friendly,0.8383,,,,,,,,,,,,,,,,,
,,,,,613484,m,y,r,n,12,0,2025-04-05_20h49.04.380,VisualSearchFaces,2024.2.4,Win32,58.82352941,,,,,,,,128.6926,128.9547,128.9548,130.9544,practice1,j,1,0,2,2,16,1,1,top_left,threatening,neutral,1.3044,,,,,,,,,,,,,,,,,
,,,,,613484,m,y,r,n,12,0,2025-04-05_20h49.04.380,VisualSearchFaces,2024.2.4,Win32,58.82352941,,,,,,,,131.9591,132.2044,132.2045,134.2041,practice1,j,1,0,3,3,18,1,1,bottom_left,threatening,neutral,0.8214,,,,,,,,,,,,,,,,,
,,,,,613484,m,y,r,n,12,0,2025-04-05_20h49.04.380,VisualSearchFaces,2024.2.4,Win32,58.82352941,,,,,,,,135.2096,135.4705,135.4705,137.4703,practice1,j,1,0,4,4,6,1,1,top_left,neutral,threatening,0.6983,,,,,,,,,,,,,,,,,
,,,,,613484,m,y,r,n,12,0,2025-04-05_20h49.04.380,VisualSearchFaces,2024.2.4,Win32,58.82352941,,,,,,,,138.475,138.7368,138.7369,140.7362,practice1,j,1,0,5,5,1,1,1,top_left,neutral,friendly,0.4672,,,,,,,,,,,,,,,,,
,,,,,613484,m,y,r,n,12,0,2025-04-05_20h49.04.380,VisualSearchFaces,2024.2.4,Win32,58.82352941,,,,,,,,141.7423,141.9865,141.9866,143.9862,practice1,f,1,0,6,6,28,1,0,bottom_left,neutral,no_target,0.9507,,,,,,,,,,,,,,,,,
,,,,,613484,m,y,r,n,12,0,2025-04-05_20h49.04.380,VisualSearchFaces,2024.2.4,Win32,58.82352941,,,,,,,,144.9924,145.2365,145.2366,147.236,practice1,j,1,0,7,7,19,1,1,bottom_right,threatening,neutral,0.745,,,,,,,,,,,,,,,,,
,,,,,613484,m,y,r,n,12,0,2025-04-05_20h49.04.380,VisualSearchFaces,2024.2.4,Win32,58.82352941,,,,,,,,148.2405,148.5022,148.5023,150.502,practice1,f,1,0,8,8,37,1,0,top_right,threatening,no_target,1.6336,,,,,,,,,,,,,,,,,
,,,,,613484,m,y,r,n,12,0,2025-04-05_20h49.04.380,VisualSearchFaces,2024.2.4,Win32,58.82352941,,,,,,,,151.5072,151.7684,151.7685,153.7681,practice1,f,1,0,9,9,20,1,0,centre,neutral,no_target,1.1167,,,,,,,,,,,,,,,,,
,,,,,613484,m,y,r,n,12,0,2025-04-05_20h49.04.380,VisualSearchFaces,2024.2.4,Win32,58.82352941,,,,,,,,154.7728,155.0182,155.0183,157.0176,practice1,f,1,0,10,10,27,1,0,top_right,neutral,no_target,0.9169,,,,,,,,,,,,,,,,,
,,,,,613484,m,y,r,n,12,0,2025-04-05_20h49.04.380,VisualSearchFaces,2024.2.4,Win32,58.82352941,,,,,,,,158.0231,158.2842,158.2843,160.2839,practice1,f,1,0,11,11,21,1,0,top_left,neutral,no_target,1.5671,,,,,,,,,,,,,,,,,
,,,,,613484,m,y,r,n,12,0,2025-04-05_20h49.04.380,VisualSearchFaces,2024.2.4,Win32,58.82352941,,,,,,,,161.2889,161.5508,161.5508,163.5503,practice1,f,1,0,12,12,23,1,0,bottom_left,neutral,no_target,1.3856,,,,,,,,,,,,,,,,,
,,,,,613484,m,y,r,n,12,0,2025-04-05_20h49.04.380,VisualSearchFaces,2024.2.4,Win32,58.82352941,,,,,,,,164.555,164.8005,164.8006,166.7998,practice1,j,1,0,13,13,2,1,1,top_right,neutral,friendly,0.6017,,,,,,,,,,,,,,,,,
,,,,,613484,m,y,r,n,12,0,2025-04-05_20h49.04.380,VisualSearchFaces,2024.2.4,Win32,58.82352941,,,,,,,,167.8046,168.0661,168.0661,170.0662,practice1,j,1,0,14,14,4,1,1,bottom_right,neutral,friendly,0.6678,,,,,,,,,,,,,,,,,
,,,,,613484,m,y,r,n,12,0,2025-04-05_20h49.04.380,VisualSearchFaces,2024.2.4,Win32,58.82352941,,,,,,,,171.0711,171.3331,171.3331,173.3328,practice1,f,1,0,15,15,30,1,0,centre,friendly,no_target,0.751,,,,,,,,,,,,,,,,,
,,,,,613484,m,y,r,n,12,0,2025-04-05_20h49.04.380,VisualSearchFaces,2024.2.4,Win32,58.82352941,,,,,,,,174.3374,174.5986,174.5986,176.599,practice1,j,1,0,16,16,13,1,1,bottom_left,friendly,neutral,1.386,,,,,,,,,,,,,,,,,
,,,,,613484,m,y,r,n,12,0,2025-04-05_20h49.04.380,VisualSearchFaces,2024.2.4,Win32,58.82352941,,,,,,,,177.6031,177.8652,177.8653,179.865,practice1,f,1,0,17,17,35,1,0,centre,threatening,no_target,0.8361,,,,,,,,,,,,,,,,,
,,,,,613484,m,y,r,n,12,0,2025-04-05_20h49.04.380,VisualSearchFaces,2024.2.4,Win32,58.82352941,,,,,,,,180.8698,181.1311,181.1312,183.1311,practice1,f,1,0,18,18,24,1,0,bottom_right,neutral,no_target,0.7174,,,,,,,,,,,,,,,,,
,,,,,613484,m,y,r,n,12,0,2025-04-05_20h49.04.380,VisualSearchFaces,2024.2.4,Win32,58.82352941,,,,,,,,184.1361,184.3979,184.3979,186.3972,practice1,f,1,0,19,19,33,1,0,bottom_left,friendly,no_target,1.3203,,,,,,,,,,,,,,,,,
,,,,,613484,m,y,r,n,12,0,2025-04-05_20h49.04.380,VisualSearchFaces,2024.2.4,Win32,58.82352941,,,,,,,,187.4027,187.6641,187.6642,189.6638,practice1,j,1,0,20,20,8,1,1,bottom_left,neutral,threatening,1.1508,,,,,,,,,,,,,,,,,
,,,,,613484,m,y,r,n,12,0,2025-04-05_20h49.04.380,VisualSearchFaces,2024.2.4,Win32,58.82352941,,,,,,,,190.669,190.9306,190.9307,192.93,practice1,f,1,0,21,21,31,1,0,top_left,friendly,no_target,0.7845,,,,,,,,,,,,,,,,,
,,,,,613484,m,y,r,n,12,0,2025-04-05_20h49.04.380,VisualSearchFaces,2024.2.4,Win32,58.82352941,,,,,,,,193.9351,194.1966,194.1966,196.1965,practice1,f,1,0,22,22,26,1,0,top_left,neutral,no_target,1.4339,,,,,,,,,,,,,,,,,
,,,,,613484,m,y,r,n,12,0,2025-04-05_20h49.04.380,VisualSearchFaces,2024.2.4,Win32,58.82352941,,,,,,,,197.2016,197.4629,197.4629,199.4625,practice1,f,1,0,23,23,38,1,0,bottom_left,threatening,no_target,0.651,,,,,,,,,,,,,,,,,
,,,,,613484,m,y,r,n,12,0,2025-04-05_20h49.04.380,VisualSearchFaces,2024.2.4,Win32,58.82352941,,,,,,,,200.4673,200.7289,200.7289,202.7285,practice1,f,1,0,24,24,29,1,0,bottom_right,neutral,no_target,0.7842,,,,,,,,,,,,,,,,,
,,,,,613484,m,y,r,n,12,0,2025-04-05_20h49.04.380,VisualSearchFaces,2024.2.4,Win32,58.82352941,,,,,,,,203.7341,203.9791,203.9791,205.9788,practice1,j,1,0,25,25,0,1,1,centre,neutral,friendly,0.8506,,,,,,,,,,,,,,,,,
,,,,,613484,m,y,r,n,12,0,2025-04-05_20h49.04.380,VisualSearchFaces,2024.2.4,Win32,58.82352941,,,,,,,,206.9834,207.24,207.2401,209.2388,practice1,j,1,0,26,26,5,1,1,centre,neutral,threatening,1.8007,,,,,,,,,,,,,,,,,
,,,,,613484,m,y,r,n,12,0,2025-04-05_20h49.04.380,VisualSearchFaces,2024.2.4,Win32,58.82352941,,,,,,,,210.243,210.4946,210.4946,212.4943,practice1,f,0,0,27,27,12,1,1,top_right,friendly,neutral,0.7835,,,,,,,,,,,,,,,,,
,,,,,613484,m,y,r,n,12,0,2025-04-05_20h49.04.380,VisualSearchFaces,2024.2.4,Win32,58.82352941,,,,,,,,213.4992,213.7611,213.7611,215.7607,practice1,j,1,0,28,28,15,1,1,centre,threatening,neutral,0.8001,,,,,,,,,,,,,,,,,
,,,,,613484,m,y,r,n,12,0,2025-04-05_20h49.04.380,VisualSearchFaces,2024.2.4,Win32,58.82352941,,,,,,,,216.7656,217.0271,217.0272,219.0267,practice1,f,1,0,29,29,34,1,0,bottom_right,friendly,no_target,0.7003,,,,,,,,,,,,,,,,,
,,,,,613484,m,y,r,n,12,0,2025-04-05_20h49.04.380,VisualSearchFaces,2024.2.4,Win32,58.82352941,,,,,,,,220.032,220.2934,220.2935,222.2931,practice1,,0,0,30,30,36,1,0,top_left,threatening,no_target,,,,,,,,,,,,,,,,,,
,,,,,613484,m,y,r,n,12,0,2025-04-05_20h49.04.380,VisualSearchFaces,2024.2.4,Win32,58.82352941,,,,,,,,223.2976,223.5597,223.5597,225.5594,practice1,j,0,0,31,31,32,1,0,top_right,friendly,no_target,1.3776,,,,,,,,,,,,,,,,,
,,,,,613484,m,y,r,n,12,0,2025-04-05_20h49.04.380,VisualSearchFaces,2024.2.4,Win32,58.82352941,,,,,,,,226.5642,226.8256,226.8257,228.8257,practice1,j,1,0,32,32,17,1,1,top_right,threatening,neutral,1.7339,,,,,,,,,,,,,,,,,
,,,,,613484,m,y,r,n,12,0,2025-04-05_20h49.04.380,VisualSearchFaces,2024.2.4,Win32,58.82352941,,,,,,,,229.8318,230.0921,230.0922,232.0918,practice1,j,1,0,33,33,7,1,1,top_right,neutral,threatening,0.6346,,,,,,,,,,,,,,,,,
,,,,,613484,m,y,r,n,12,0,2025-04-05_20h49.04.380,VisualSearchFaces,2024.2.4,Win32,58.82352941,,,,,,,,233.0963,233.3581,233.3582,235.3582,practice1,j,1,0,34,34,14,1,1,bottom_right,friendly,neutral,0.7502,,,,,,,,,,,,,,,,,
,,,,,613484,m,y,r,n,12,0,2025-04-05_20h49.04.380,VisualSearchFaces,2024.2.4,Win32,58.82352941,,,,,,,,236.3662,236.625,236.625,238.6242,practice1,f,1,0,35,35,22,1,0,top_right,neutral,no_target,0.7013,,,,,,,,,,,,,,,,,
,,,,,613484,m,y,r,n,12,0,2025-04-05_20h49.04.380,VisualSearchFaces,2024.2.4,Win32,58.82352941,,,,,,,,239.6298,239.8908,239.8909,241.8906,practice1,f,1,0,36,36,39,1,0,bottom_right,threatening,no_target,0.8528,,,,,,,,,,,,,,,,,
,,,,,613484,m,y,r,n,12,0,2025-04-05_20h49.04.380,VisualSearchFaces,2024.2.4,Win32,58.82352941,,,,,,,,242.8954,243.1571,243.1571,245.1569,practice1,f,0,0,37,37,11,1,1,top_left,friendly,neutral,0.7682,,,,,,,,,,,,,,,,,
,,,,,613484,m,y,r,n,12,0,2025-04-05_20h49.04.380,VisualSearchFaces,2024.2.4,Win32,58.82352941,,,,,,,,246.1618,246.4237,246.4237,248.4232,practice1,j,0,0,38,38,25,1,0,centre,neutral,no_target,1.7259,,,,,,,,,,,,,,,,,
,,,,,613484,m,y,r,n,12,0,2025-04-05_20h49.04.380,VisualSearchFaces,2024.2.4,Win32,58.82352941,,,,,,,,249.4286,249.6897,249.6898,251.6894,practice1,f,0,0,39,39,10,1,1,centre,friendly,neutral,0.7942,,,,,,,,,,,,,,,,,
,,,,,613484,m,y,r,n,12,0,2025-04-05_20h49.04.380,VisualSearchFaces,2024.2.4,Win32,58.82352941,,,263.1816,266.4043,space,3.1724,,267.4092,267.5269,267.5271,269.5206,practice2,f,1,0,0,0,25,1,0,centre,neutral,no_target,1.4285,,251.6915,263.1719,space,11.4472,,,,,,,,,,,,
,,,,,613484,m,y,r,n,12,0,2025-04-05_20h49.04.380,VisualSearchFaces,2024.2.4,Win32,58.82352941,,,,,,,,270.5261,270.6465,270.6467,272.6365,practice2,j,0,0,1,1,31,1,0,top_left,friendly,no_target,0.5238,,,,,,,,,,,,,,,,,
,,,,,613484,m,y,r,n,12,0,2025-04-05_20h49.04.380,VisualSearchFaces,2024.2.4,Win32,58.82352941,,,,,,,,273.6425,273.7533,273.7534,275.7533,practice2,j,1,0,2,2,13,1,1,bottom_left,friendly,neutral,0.9179,,,,,,,,,,,,,,,,,
,,,,,613484,m,y,r,n,12,0,2025-04-05_20h49.04.380,VisualSearchFaces,2024.2.4,Win32,58.82352941,,,,,,,,276.7583,276.8824,276.8824,278.8861,practice2,f,0,0,3,3,9,1,1,bottom_right,neutral,threatening,0.8046,,,,,,,,,,,,,,,,,
,,,,,613484,m,y,r,n,12,0,2025-04-05_20h49.04.380,VisualSearchFaces,2024.2.4,Win32,58.82352941,,,,,,,,279.891,280.0089,280.009,282.0024,practice2,f,1,0,4,4,39,1,0,bottom_right,threatening,no_target,1.7592,,,,,,,,,,,,,,,,,
,,,,,613484,m,y,r,n,12,0,2025-04-05_20h49.04.380,VisualSearchFaces,2024.2.4,Win32,58.82352941,,,,,,,,283.007,283.1233,283.1234,285.1184,practice2,j,1,0,5,5,12,1,1,top_right,friendly,neutral,1.1796,,,,,,,,,,,,,,,,,
,,,,,613484,m,y,r,n,12,0,2025-04-05_20h49.04.380,VisualSearchFaces,2024.2.4,Win32,58.82352941,,,,,,,,286.126,286.2629,286.2631,288.2514,practice2,j,1,0,6,6,8,1,1,bottom_left,neutral,threatening,0.9598,,,,,,,,,,,,,,,,,
,,,,,613484,m,y,r,n,12,0,2025-04-05_20h49.04.380,VisualSearchFaces,2024.2.4,Win32,58.82352941,,,,,,,,289.257,289.3681,289.3682,291.3677,practice2,f,1,0,7,7,28,1,0,bottom_left,neutral,no_target,0.8531,,,,,,,,,,,,,,,,,
,,,,,613484,m,y,r,n,12,0,2025-04-05_20h49.04.380,VisualSearchFaces,2024.2.4,Win32,58.82352941,,,,,,,,292.3731,292.4845,292.4846,294.484,practice2,j,1,0,8,8,4,1,1,bottom_right,neutral,friendly,0.967,,,,,,,,,,,,,,,,,
,,,,,613484,m,y,r,n,12,0,2025-04-05_20h49.04.380,VisualSearchFaces,2024.2.4,Win32,58.82352941,,,,,,,,295.4893,295.6142,295.6143,297.6172,practice2,j,0,0,9,9,36,1,0,top_left,threatening,no_target,1.1207,,,,,,,,,,,,,,,,,
,,,,,613484,m,y,r,n,12,0,2025-04-05_20h49.04.380,VisualSearchFaces,2024.2.4,Win32,58.82352941,,,,,,,,298.6221,298.742,298.742,300.7331,practice2,j,1,0,10,10,2,1,1,top_right,neutral,friendly,0.809,,,,,,,,,,,,,,,,,
,,,,,613484,m,y,r,n,12,0,2025-04-05_20h49.04.380,VisualSearchFaces,2024.2.4,Win32,58.82352941,,,,,,,,301.74,301.8767,301.8769,303.8661,practice2,j,0,0,11,11,32,1,0,top_right,friendly,no_target,0.922,,,,,,,,,,,,,,,,,
,,,,,613484,m,y,r,n,12,0,2025-04-05_20h49.04.380,VisualSearchFaces,2024.2.4,Win32,58.82352941,,,,,,,,304.8711,304.9827,304.9829,306.9826,practice2,j,1,0,12,12,6,1,1,top_left,neutral,threatening,0.6672,,,,,,,,,,,,,,,,,
,,,,,613484,m,y,r,n,12,0,2025-04-05_20h49.04.380,VisualSearchFaces,2024.2.4,Win32,58.82352941,,,,,,,,307.9871,308.0992,308.0993,310.0989,practice2,f,1,0,13,13,22,1,0,top_right,neutral,no_target,0.721,,,,,,,,,,,,,,,,,
,,,,,613484,m,y,r,n,12,0,2025-04-05_20h49.04.380,VisualSearchFaces,2024.2.4,Win32,58.82352941,,,,,,,,311.1043,311.2227,311.2227,313.2152,practice2,j,1,0,14,14,16,1,1,top_left,threatening,neutral,0.6267,,,,,,,,,,,,,,,,,
,,,,,613484,m,y,r,n,12,0,2025-04-05_20h49.04.380,VisualSearchFaces,2024.2.4,Win32,58.82352941,,,,,,,,314.2197,314.3439,314.3439,316.3481,practice2,f,1,0,15,15,20,1,0,centre,neutral,no_target,1.3741,,,,,,,,,,,,,,,,,
,,,,,613484,m,y,r,n,12,0,2025-04-05_20h49.04.380,VisualSearchFaces,2024.2.4,Win32,58.82352941,,,,,,,,317.3532,317.4648,317.4649,319.4641,practice2,j,1,0,16,16,0,1,1,centre,neutral,friendly,0.6294,,,,,,,,,,,,,,,,,
,,,,,613484,m,y,r,n,12,0,2025-04-05_20h49.04.380,VisualSearchFaces,2024.2.4,Win32,58.82352941,,,,,,,,320.4687,320.5863,320.5864,322.5806,practice2,j,1,0,17,17,11,1,1,top_left,friendly,neutral,0.7128,,,,,,,,,,,,,,,,,
,,,,,613484,m,y,r,n,12,0,2025-04-05_20h49.04.380,VisualSearchFaces,2024.2.4,Win32,58.82352941,,,,,,,,323.585,323.7068,323.7068,325.6972,practice2,j,1,0,18,18,1,1,1,top_left,neutral,friendly,0.6583,,,,,,,,,,,,,,,,,
,,,,,613484,m,y,r,n,12,0,2025-04-05_20h49.04.380,VisualSearchFaces,2024.2.4,Win32,58.82352941,,,,,,,,326.7018,326.8183,326.8184,328.8132,practice2,j,1,0,19,19,14,1,1,bottom_right,friendly,neutral,0.6125,,,,,,,,,,,,,,,,,
,,,,,613484,m,y,r,n,12,0,2025-04-05_20h49.04.380,VisualSearchFaces,2024.2.4,Win32,58.82352941,,,,,,,,329.8185,329.9392,329.9393,331.9295,practice2,f,1,0,20,20,38,1,0,bottom_left,threatening,no_target,0.7411,,,,,,,,,,,,,,,,,
,,,,,613484,m,y,r,n,12,0,2025-04-05_20h49.04.380,VisualSearchFaces,2024.2.4,Win32,58.82352941,,,,,,,,332.9347,333.0572,333.0573,335.0459,practice2,j,0,0,21,21,34,1,0,bottom_right,friendly,no_target,0.5388,,,,,,,,,,,,,,,,,
,,,,,613484,m,y,r,n,12,0,2025-04-05_20h49.04.380,VisualSearchFaces,2024.2.4,Win32,58.82352941,,,,,,,,336.0506,336.1724,336.1725,338.1621,practice2,j,1,0,22,22,3,1,1,bottom_left,neutral,friendly,1.3919,,,,,,,,,,,,,,,,,
,,,,,613484,m,y,r,n,12,0,2025-04-05_20h49.04.380,VisualSearchFaces,2024.2.4,Win32,58.82352941,,,,,,,,339.167,339.2879,339.2879,341.2782,practice2,f,0,0,23,23,15,1,1,centre,threatening,neutral,0.9081,,,,,,,,,,,,,,,,,
,,,,,613484,m,y,r,n,12,0,2025-04-05_20h49.04.380,VisualSearchFaces,2024.2.4,Win32,58.82352941,,,,,,,,342.2832,342.3889,342.3889,344.3782,practice2,f,0,0,24,24,10,1,1,centre,friendly,neutral,1.6898,,,,,,,,,,,,,,,,,
,,,,,613484,m,y,r,n,12,0,2025-04-05_20h49.04.380,VisualSearchFaces,2024.2.4,Win32,58.82352941,,,,,,,,345.3828,345.5095,345.5096,347.5108,practice2,j,1,0,25,25,7,1,1,top_right,neutral,threatening,0.619,,,,,,,,,,,,,,,,,
,,,,,613484,m,y,r,n,12,0,2025-04-05_20h49.04.380,VisualSearchFaces,2024.2.4,Win32,58.82352941,,,,,,,,348.5157,348.6276,348.6277,350.6272,practice2,f,1,0,26,26,29,1,0,bottom_right,neutral,no_target,1.0166,,,,,,,,,,,,,,,,,
,,,,,613484,m,y,r,n,12,0,2025-04-05_20h49.04.380,VisualSearchFaces,2024.2.4,Win32,58.82352941,,,,,,,,351.6322,351.7436,351.7436,353.7436,practice2,f,1,0,27,27,24,1,0,bottom_right,neutral,no_target,0.8838,,,,,,,,,,,,,,,,,
,,,,,613484,m,y,r,n,12,0,2025-04-05_20h49.04.380,VisualSearchFaces,2024.2.4,Win32,58.82352941,,,,,,,,354.748,354.8601,354.8601,356.8596,practice2,f,1,0,28,28,21,1,0,top_left,neutral,no_target,1.3028,,,,,,,,,,,,,,,,,
,,,,,613484,m,y,r,n,12,0,2025-04-05_20h49.04.380,VisualSearchFaces,2024.2.4,Win32,58.82352941,,,,,,,,357.8668,357.9762,357.9763,359.976,practice2,f,1,0,29,29,23,1,0,bottom_left,neutral,no_target,0.6491,,,,,,,,,,,,,,,,,
,,,,,613484,m,y,r,n,12,0,2025-04-05_20h49.04.380,VisualSearchFaces,2024.2.4,Win32,58.82352941,,,,,,,,360.9807,361.0987,361.0988,363.0924,practice2,j,1,0,30,30,17,1,1,top_right,threatening,neutral,1.1786,,,,,,,,,,,,,,,,,
,,,,,613484,m,y,r,n,12,0,2025-04-05_20h49.04.380,VisualSearchFaces,2024.2.4,Win32,58.82352941,,,,,,,,364.0968,364.2069,364.2069,366.2087,practice2,f,1,0,31,31,26,1,0,top_left,neutral,no_target,0.7091,,,,,,,,,,,,,,,,,
,,,,,613484,m,y,r,n,12,0,2025-04-05_20h49.04.380,VisualSearchFaces,2024.2.4,Win32,58.82352941,,,,,,,,367.2133,367.3368,367.3369,369.3251,practice2,f,0,0,32,32,19,1,1,bottom_right,threatening,neutral,1.0227,,,,,,,,,,,,,,,,,
,,,,,613484,m,y,r,n,12,0,2025-04-05_20h49.04.380,VisualSearchFaces,2024.2.4,Win32,58.82352941,,,,,,,,370.3294,370.4448,370.4448,372.4411,practice2,f,1,0,33,33,30,1,0,centre,friendly,no_target,0.8802,,,,,,,,,,,,,,,,,
,,,,,613484,m,y,r,n,12,0,2025-04-05_20h49.04.380,VisualSearchFaces,2024.2.4,Win32,58.82352941,,,,,,,,373.4461,373.5627,373.5628,375.5587,practice2,j,1,0,34,34,5,1,1,centre,neutral,threatening,0.5787,,,,,,,,,,,,,,,,,
,,,,,613484,m,y,r,n,12,0,2025-04-05_20h49.04.380,VisualSearchFaces,2024.2.4,Win32,58.82352941,,,,,,,,376.5625,376.6743,376.6743,378.6736,practice2,f,1,0,35,35,27,1,0,top_right,neutral,no_target,0.6827,,,,,,,,,,,,,,,,,
,,,,,613484,m,y,r,n,12,0,2025-04-05_20h49.04.380,VisualSearchFaces,2024.2.4,Win32,58.82352941,,,,,,,,379.6784,379.8075,379.8076,381.8068,practice2,f,1,0,36,36,35,1,0,centre,threatening,no_target,0.6033,,,,,,,,,,,,,,,,,
,,,,,613484,m,y,r,n,12,0,2025-04-05_20h49.04.380,VisualSearchFaces,2024.2.4,Win32,58.82352941,,,,,,,,382.8109,382.9194,382.9195,384.9231,practice2,f,1,0,37,37,33,1,0,bottom_left,friendly,no_target,0.7056,,,,,,,,,,,,,,,,,
,,,,,613484,m,y,r,n,12,0,2025-04-05_20h49.04.380,VisualSearchFaces,2024.2.4,Win32,58.82352941,,,,,,,,385.9277,386.0451,386.0452,388.0398,practice2,f,1,0,38,38,37,1,0,top_right,threatening,no_target,0.7286,,,,,,,,,,,,,,,,,
,,,,,613484,m,y,r,n,12,0,2025-04-05_20h49.04.380,VisualSearchFaces,2024.2.4,Win32,58.82352941,,,,,,,,389.0443,389.1562,389.1563,391.1558,practice2,j,1,0,39,39,18,1,1,bottom_left,threatening,neutral,0.7508,,,,,,,,,,,,,,,,,
,,,,,613484,m,y,r,n,12,0,2025-04-05_20h49.04.380,VisualSearchFaces,2024.2.4,Win32,58.82352941,,,399.1282,401.0542,space,1.8948,,402.0587,402.18,402.1802,404.1704,block1,j,1,0,0,0,5,1,1,centre,neutral,threatening,1.4586,,391.1596,399.121,space,7.9341,,,,,,,,,,,,
,,,,,613484,m,y,r,n,12,0,2025-04-05_20h49.04.380,VisualSearchFaces,2024.2.4,Win32,58.82352941,,,,,,,,405.176,405.2873,405.2873,407.2869,block1,f,1,0,1,1,26,1,0,top_left,neutral,no_target,0.6157,,,,,,,,,,,,,,,,,
,,,,,613484,m,y,r,n,12,0,2025-04-05_20h49.04.380,VisualSearchFaces,2024.2.4,Win32,58.82352941,,,,,,,,408.2915,408.4133,408.4134,410.4034,block1,f,0,0,2,2,18,1,1,bottom_left,threatening,neutral,0.7411,,,,,,,,,,,,,,,,,
,,,,,613484,m,y,r,n,12,0,2025-04-05_20h49.04.380,VisualSearchFaces,2024.2.4,Win32,58.82352941,,,,,,,,411.4077,411.5168,411.5169,413.5195,block1,j,1,0,3,3,13,1,1,bottom_left,friendly,neutral,0.6535,,,,,,,,,,,,,,,,,
,,,,,613484,m,y,r,n,12,0,2025-04-05_20h49.04.380,VisualSearchFaces,2024.2.4,Win32,58.82352941,,,,,,,,414.5242,414.6368,414.6369,416.6358,block1,f,0,0,4,4,19,1,1,bottom_right,threatening,neutral,0.533,,,,,,,,,,,,,,,,,
,,,,,613484,m,y,r,n,12,0,2025-04-05_20h49.04.380,VisualSearchFaces,2024.2.4,Win32,58.82352941,,,,,,,,417.6406,417.7521,417.7522,419.7525,block1,j,1,0,5,5,12,1,1,top_right,friendly,neutral,0.834,,,,,,,,,,,,,,,,,
,,,,,613484,m,y,r,n,12,0,2025-04-05_20h49.04.380,VisualSearchFaces,2024.2.4,Win32,58.82352941,,,,,,,,420.7567,420.8637,420.8638,422.8625,block1,f,1,0,6,6,30,1,0,centre,friendly,no_target,0.5174,,,,,,,,,,,,,,,,,
,,,,,613484,m,y,r,n,12,0,2025-04-05_20h49.04.380,VisualSearchFaces,2024.2.4,Win32,58.82352941,,,,,,,,423.8678,423.9923,423.9924,425.9844,block1,j,1,0,7,7,3,1,1,bottom_left,neutral,friendly,0.8927,,,,,,,,,,,,,,,,,
,,,,,613484,m,y,r,n,12,0,2025-04-05_20h49.04.380,VisualSearchFaces,2024.2.4,Win32,58.82352941,,,,,,,,426.989,427.1067,427.1067,429.1008,block1,f,0,0,8,8,11,1,1,top_left,friendly,neutral,0.595,,,,,,,,,,,,,,,,,
,,,,,613484,m,y,r,n,12,0,2025-04-05_20h49.04.380,VisualSearchFaces,2024.2.4,Win32,58.82352941,,,,,,,,430.1172,430.2432,430.2433,432.2338,block1,f,1,0,9,9,25,1,0,centre,neutral,no_target,0.7285,,,,,,,,,,,,,,,,,
,,,,,613484,m,y,r,n,12,0,2025-04-05_20h49.04.380,VisualSearchFaces,2024.2.4,Win32,58.82352941,,,,,,,,433.2384,433.3507,433.3507,435.3502,block1,j,1,0,10,10,6,1,1,top_left,neutral,threatening,0.6762,,,,,,,,,,,,,,,,,
,,,,,613484,m,y,r,n,12,0,2025-04-05_20h49.04.380,VisualSearchFaces,2024.2.4,Win32,58.82352941,,,,,,,,436.344,436.4499,436.45,438.4498,block1,j,1,0,11,11,7,1,1,top_right,neutral,threatening,0.4876,,,,,,,,,,,,,,,,,
,,,,,613484,m,y,r,n,12,0,2025-04-05_20h49.04.380,VisualSearchFaces,2024.2.4,Win32,58.82352941,,,,,,,,439.4548,439.5663,439.5663,441.5662,block1,f,1,0,12,12,22,1,0,top_right,neutral,no_target,0.6011,,,,,,,,,,,,,,,,,
,,,,,613484,m,y,r,n,12,0,2025-04-05_20h49.04.380,VisualSearchFaces,2024.2.4,Win32,58.82352941,,,,,,,,442.571,442.6976,442.6977,444.6994,block1,f,1,0,13,13,35,1,0,centre,threatening,no_target,0.6868,,,,,,,,,,,,,,,,,
,,,,,613484,m,y,r,n,12,0,2025-04-05_20h49.04.380,VisualSearchFaces,2024.2.4,Win32,58.82352941,,,,,,,,445.7034,445.8211,445.8211,447.8154,block1,j,1,0,14,14,9,1,1,bottom_right,neutral,threatening,0.633,,,,,,,,,,,,,,,,,
,,,,,613484,m,y,r,n,12,0,2025-04-05_20h49.04.380,VisualSearchFaces,2024.2.4,Win32,58.82352941,,,,,,,,448.8206,448.927,448.927,450.9317,block1,f,1,0,15,15,28,1,0,bottom_left,neutral,no_target,0.5392,,,,,,,,,,,,,,,,,
,,,,,613484,m,y,r,n,12,0,2025-04-05_20h49.04.380,VisualSearchFaces,2024.2.4,Win32,58.82352941,,,,,,,,451.9191,452.0385,452.0387,454.0309,block1,f,1,0,16,16,33,1,0,bottom_left,friendly,no_target,0.8751,,,,,,,,,,,,,,,,,
,,,,,613484,m,y,r,n,12,0,2025-04-05_20h49.04.380,VisualSearchFaces,2024.2.4,Win32,58.82352941,,,,,,,,455.0351,455.1591,455.1595,457.1475,block1,j,1,0,17,17,16,1,1,top_left,threatening,neutral,0.7868,,,,,,,,,,,,,,,,,
,,,,,613484,m,y,r,n,12,0,2025-04-05_20h49.04.380,VisualSearchFaces,2024.2.4,Win32,58.82352941,,,,,,,,458.152,458.2713,458.2714,460.2639,block1,f,1,0,18,18,21,1,0,top_left,neutral,no_target,0.7753,,,,,,,,,,,,,,,,,
,,,,,613484,m,y,r,n,12,0,2025-04-05_20h49.04.380,VisualSearchFaces,2024.2.4,Win32,58.82352941,,,,,,,,461.2679,461.3639,461.3639,463.3635,block1,j,1,0,19,19,4,1,1,bottom_right,neutral,friendly,0.8672,,,,,,,,,,,,,,,,,
,,,,,613484,m,y,r,n,12,0,2025-04-05_20h49.04.380,VisualSearchFaces,2024.2.4,Win32,58.82352941,,,,,,,,464.3676,464.4902,464.4903,466.4798,block1,f,0,0,20,20,17,1,1,top_right,threatening,neutral,0.7753,,,,,,,,,,,,,,,,,
,,,,,613484,m,y,r,n,12,0,2025-04-05_20h49.04.380,VisualSearchFaces,2024.2.4,Win32,58.82352941,,,,,,,,467.4841,467.599,467.599,469.596,block1,f,1,0,21,21,20,1,0,centre,neutral,no_target,1.2812,,,,,,,,,,,,,,,,,
,,,,,613484,m,y,r,n,12,0,2025-04-05_20h49.04.380,VisualSearchFaces,2024.2.4,Win32,58.82352941,,,,,,,,470.6006,470.725,470.7251,472.7287,block1,j,1,0,22,22,14,1,1,bottom_right,friendly,neutral,0.7383,,,,,,,,,,,,,,,,,
,,,,,613484,m,y,r,n,12,0,2025-04-05_20h49.04.380,VisualSearchFaces,2024.2.4,Win32,58.82352941,,,,,,,,473.735,473.8628,473.8628,475.862,block1,j,0,0,23,23,29,1,0,bottom_right,neutral,no_target,0.7621,,,,,,,,,,,,,,,,,
,,,,,613484,m,y,r,n,12,0,2025-04-05_20h49.04.380,VisualSearchFaces,2024.2.4,Win32,58.82352941,,,,,,,,476.866,476.9763,476.9764,478.9779,block1,f,1,0,24,24,38,1,0,bottom_left,threatening,no_target,1.0719,,,,,,,,,,,,,,,,,
,,,,,613484,m,y,r,n,12,0,2025-04-05_20h49.04.380,VisualSearchFaces,2024.2.4,Win32,58.82352941,,,,,,,,479.983,480.1049,480.1049,482.0946,block1,f,1,0,25,25,24,1,0,bottom_right,neutral,no_target,1.0762,,,,,,,,,,,,,,,,,
,,,,,613484,m,y,r,n,12,0,2025-04-05_20h49.04.380,VisualSearchFaces,2024.2.4,Win32,58.82352941,,,,,,,,483.0993,483.2181,483.2184,485.2106,block1,f,1,0,26,26,31,1,0,top_left,friendly,no_target,0.66,,,,,,,,,,,,,,,,,
,,,,,613484,m,y,r,n,12,0,2025-04-05_20h49.04.380,VisualSearchFaces,2024.2.4,Win32,58.82352941,,,,,,,,486.2154,486.3302,486.3303,488.3273,block1,j,0,0,27,27,37,1,0,top_right,threatening,no_target,1.2464,,,,,,,,,,,,,,,,,
,,,,,613484,m,y,r,n,12,0,2025-04-05_20h49.04.380,VisualSearchFaces,2024.2.4,Win32,58.82352941,,,,,,,,489.3313,489.4435,489.4436,491.4434,block1,f,1,0,28,28,39,1,0,bottom_right,threatening,no_target,0.7174,,,,,,,,,,,,,,,,,
,,,,,613484,m,y,r,n,12,0,2025-04-05_20h49.04.380,VisualSearchFaces,2024.2.4,Win32,58.82352941,,,,,,,,492.4481,492.5699,492.57,494.5596,block1,j,1,0,29,29,8,1,1,bottom_left,neutral,threatening,0.8063,,,,,,,,,,,,,,,,,
,,,,,613484,m,y,r,n,12,0,2025-04-05_20h49.04.380,VisualSearchFaces,2024.2.4,Win32,58.82352941,,,,,,,,495.5643,495.6762,495.6762,497.6759,block1,f,1,0,30,30,23,1,0,bottom_left,neutral,no_target,0.7343,,,,,,,,,,,,,,,,,
,,,,,613484,m,y,r,n,12,0,2025-04-05_20h49.04.380,VisualSearchFaces,2024.2.4,Win32,58.82352941,,,,,,,,498.6805,498.8032,498.8032,500.7921,block1,f,1,0,31,31,32,1,0,top_right,friendly,no_target,0.8734,,,,,,,,,,,,,,,,,
,,,,,613484,m,y,r,n,12,0,2025-04-05_20h49.04.380,VisualSearchFaces,2024.2.4,Win32,58.82352941,,,,,,,,501.7968,501.9087,501.9088,503.9083,block1,j,0,0,32,32,34,1,0,bottom_right,friendly,no_target,0.6505,,,,,,,,,,,,,,,,,
,,,,,613484,m,y,r,n,12,0,2025-04-05_20h49.04.380,VisualSearchFaces,2024.2.4,Win32,58.82352941,,,,,,,,504.9124,505.0305,505.0305,507.0248,block1,f,1,0,33,33,36,1,0,top_left,threatening,no_target,0.7784,,,,,,,,,,,,,,,,,
,,,,,613484,m,y,r,n,12,0,2025-04-05_20h49.04.380,VisualSearchFaces,2024.2.4,Win32,58.82352941,,,,,,,,508.0291,508.1507,508.1508,510.141,block1,j,1,0,34,34,1,1,1,top_left,neutral,friendly,0.677,,,,,,,,,,,,,,,,,
,,,,,613484,m,y,r,n,12,0,2025-04-05_20h49.04.380,VisualSearchFaces,2024.2.4,Win32,58.82352941,,,,,,,,511.1456,511.2718,511.2718,513.2737,block1,j,1,0,35,35,10,1,1,centre,friendly,neutral,0.7199,,,,,,,,,,,,,,,,,
,,,,,613484,m,y,r,n,12,0,2025-04-05_20h49.04.380,VisualSearchFaces,2024.2.4,Win32,58.82352941,,,,,,,,514.2765,514.3901,514.3901,516.3902,block1,j,1,0,36,36,0,1,1,centre,neutral,friendly,0.7683,,,,,,,,,,,,,,,,,
,,,,,613484,m,y,r,n,12,0,2025-04-05_20h49.04.380,VisualSearchFaces,2024.2.4,Win32,58.82352941,,,,,,,,517.3948,517.5065,517.5066,519.5067,block1,f,1,0,37,37,27,1,0,top_right,neutral,no_target,0.5347,,,,,,,,,,,,,,,,,
,,,,,613484,m,y,r,n,12,0,2025-04-05_20h49.04.380,VisualSearchFaces,2024.2.4,Win32,58.82352941,,,,,,,,520.4993,520.6067,520.6067,522.6061,block1,j,1,0,38,38,2,1,1,top_right,neutral,friendly,0.5839,,,,,,,,,,,,,,,,,
,,,,,613484,m,y,r,n,12,0,2025-04-05_20h49.04.380,VisualSearchFaces,2024.2.4,Win32,58.82352941,,,,,,,,523.6109,523.7353,523.7353,525.7391,block1,j,1,0,39,39,15,1,1,centre,threatening,neutral,0.6712,,,,,,,,,,,,,,,,,
,,,,,613484,m,y,r,n,12,0,2025-04-05_20h49.04.380,VisualSearchFaces,2024.2.4,Win32,58.82352941,,,,,,,,526.7435,526.8648,526.8649,528.8553,block1,f,1,1,0,40,21,1,0,top_left,neutral,no_target,0.6915,,,,,,,,,,,,,,,,,
,,,,,613484,m,y,r,n,12,0,2025-04-05_20h49.04.380,VisualSearchFaces,2024.2.4,Win32,58.82352941,,,,,,,,529.86,529.972,529.972,531.9716,block1,j,1,1,1,41,8,1,1,bottom_left,neutral,threatening,0.6838,,,,,,,,,,,,,,,,,
,,,,,613484,m,y,r,n,12,0,2025-04-05_20h49.04.380,VisualSearchFaces,2024.2.4,Win32,58.82352941,,,,,,,,532.9758,533.0882,533.0883,535.088,block1,f,1,1,2,42,23,1,0,bottom_left,neutral,no_target,0.8999,,,,,,,,,,,,,,,,,
,,,,,613484,m,y,r,n,12,0,2025-04-05_20h49.04.380,VisualSearchFaces,2024.2.4,Win32,58.82352941,,,,,,,,536.092,536.2045,536.2046,538.2043,block1,j,1,1,3,43,9,1,1,bottom_right,neutral,threatening,0.6674,,,,,,,,,,,,,,,,,
,,,,,613484,m,y,r,n,12,0,2025-04-05_20h49.04.380,VisualSearchFaces,2024.2.4,Win32,58.82352941,,,,,,,,539.2095,539.3115,539.3116,541.3035,block1,j,1,1,4,44,7,1,1,top_right,neutral,threatening,0.7796,,,,,,,,,,,,,,,,,
,,,,,613484,m,y,r,n,12,0,2025-04-05_20h49.04.380,VisualSearchFaces,2024.2.4,Win32,58.82352941,,,,,,,,542.3085,542.4303,542.4303,544.4201,block1,j,1,1,5,45,17,1,1,top_right,threatening,neutral,1.1405,,,,,,,,,,,,,,,,,
,,,,,613484,m,y,r,n,12,0,2025-04-05_20h49.04.380,VisualSearchFaces,2024.2.4,Win32,58.82352941,,,,,,,,545.425,545.5464,545.5464,547.5364,block1,j,0,1,6,46,28,1,0,bottom_left,neutral,no_target,0.6577,,,,,,,,,,,,,,,,,
,,,,,613484,m,y,r,n,12,0,2025-04-05_20h49.04.380,VisualSearchFaces,2024.2.4,Win32,58.82352941,,,,,,,,548.5426,548.6604,548.6605,550.6527,block1,f,1,1,7,47,30,1,0,centre,friendly,no_target,0.8265,,,,,,,,,,,,,,,,,
,,,,,613484,m,y,r,n,12,0,2025-04-05_20h49.04.380,VisualSearchFaces,2024.2.4,Win32,58.82352941,,,,,,,,551.6574,551.7764,551.7764,553.7691,block1,f,1,1,8,48,22,1,0,top_right,neutral,no_target,0.8268,,,,,,,,,,,,,,,,,
,,,,,613484,m,y,r,n,12,0,2025-04-05_20h49.04.380,VisualSearchFaces,2024.2.4,Win32,58.82352941,,,,,,,,554.7735,554.8854,554.8855,556.8846,block1,j,1,1,9,49,0,1,1,centre,neutral,friendly,0.5173,,,,,,,,,,,,,,,,,
,,,,,613484,m,y,r,n,12,0,2025-04-05_20h49.04.380,VisualSearchFaces,2024.2.4,Win32,58.82352941,,,,,,,,557.8897,558.0041,558.0041,560.0016,block1,f,1,1,10,50,36,1,0,top_left,threatening,no_target,0.6974,,,,,,,,,,,,,,,,,
,,,,,613484,m,y,r,n,12,0,2025-04-05_20h49.04.380,VisualSearchFaces,2024.2.4,Win32,58.82352941,,,,,,,,561.0062,561.1275,561.1276,563.1178,block1,j,1,1,11,51,1,1,1,top_left,neutral,friendly,0.6394,,,,,,,,,,,,,,,,,
,,,,,613484,m,y,r,n,12,0,2025-04-05_20h49.04.380,VisualSearchFaces,2024.2.4,Win32,58.82352941,,,,,,,,564.1219,564.2384,564.2385,566.2342,block1,j,1,1,12,52,16,1,1,top_left,threatening,neutral,0.6611,,,,,,,,,,,,,,,,,
,,,,,613484,m,y,r,n,12,0,2025-04-05_20h49.04.380,VisualSearchFaces,2024.2.4,Win32,58.82352941,,,,,,,,567.2394,567.3659,567.366,569.3673,block1,j,1,1,13,53,4,1,1,bottom_right,neutral,friendly,0.6347,,,,,,,,,,,,,,,,,
,,,,,613484,m,y,r,n,12,0,2025-04-05_20h49.04.380,VisualSearchFaces,2024.2.4,Win32,58.82352941,,,,,,,,570.3712,570.4914,570.4914,572.4834,block1,f,1,1,14,54,39,1,0,bottom_right,threatening,no_target,0.73,,,,,,,,,,,,,,,,,
,,,,,613484,m,y,r,n,12,0,2025-04-05_20h49.04.380,VisualSearchFaces,2024.2.4,Win32,58.82352941,,,,,,,,573.4886,573.5904,573.5904,575.583,block1,j,0,1,15,55,34,1,0,bottom_right,friendly,no_target,0.6257,,,,,,,,,,,,,,,,,
,,,,,613484,m,y,r,n,12,0,2025-04-05_20h49.04.380,VisualSearchFaces,2024.2.4,Win32,58.82352941,,,,,,,,576.5875,576.6995,576.6995,578.6991,block1,f,0,1,16,56,14,1,1,bottom_right,friendly,neutral,1.7507,,,,,,,,,,,,,,,,,
,,,,,613484,m,y,r,n,12,0,2025-04-05_20h49.04.380,VisualSearchFaces,2024.2.4,Win32,58.82352941,,,,,,,,579.7037,579.8306,579.8306,581.8322,block1,,0,1,17,57,5,1,1,centre,neutral,threatening,,,,,,,,,,,,,,,,,,
,,,,,613484,m,y,r,n,12,0,2025-04-05_20h49.04.380,VisualSearchFaces,2024.2.4,Win32,58.82352941,,,,,,,,582.8372,582.9463,582.9464,584.9484,block1,f,1,1,18,58,33,1,0,bottom_left,friendly,no_target,0.7703,,,,,,,,,,,,,,,,,
,,,,,613484,m,y,r,n,12,0,2025-04-05_20h49.04.380,VisualSearchFaces,2024.2.4,Win32,58.82352941,,,,,,,,585.954,586.0771,586.0772,588.0649,block1,f,1,1,19,59,27,1,0,top_right,neutral,no_target,0.6198,,,,,,,,,,,,,,,,,
,,,,,613484,m,y,r,n,12,0,2025-04-05_20h49.04.380,VisualSearchFaces,2024.2.4,Win32,58.82352941,,,,,,,,589.0863,589.2056,589.2057,591.1975,block1,f,1,1,20,60,37,1,0,top_right,threatening,no_target,0.7633,,,,,,,,,,,,,,,,,
,,,,,613484,m,y,r,n,12,0,2025-04-05_20h49.04.380,VisualSearchFaces,2024.2.4,Win32,58.82352941,,,,,,,,592.202,592.3183,592.3184,594.3142,block1,j,1,1,21,61,13,1,1,bottom_left,friendly,neutral,0.6126,,,,,,,,,,,,,,,,,
,,,,,613484,m,y,r,n,12,0,2025-04-05_20h49.04.380,VisualSearchFaces,2024.2.4,Win32,58.82352941,,,,,,,,595.3186,595.4379,595.4379,597.4302,block1,f,1,1,22,62,38,1,0,bottom_left,threatening,no_target,0.6444,,,,,,,,,,,,,,,,,
,,,,,613484,m,y,r,n,12,0,2025-04-05_20h49.04.380,VisualSearchFaces,2024.2.4,Win32,58.82352941,,,,,,,,598.4346,598.5522,598.5523,600.5465,block1,j,1,1,23,63,12,1,1,top_right,friendly,neutral,0.6121,,,,,,,,,,,,,,,,,
,,,,,613484,m,y,r,n,12,0,2025-04-05_20h49.04.380,VisualSearchFaces,2024.2.4,Win32,58.82352941,,,,,,,,601.5517,601.6721,601.6721,603.6627,block1,j,1,1,24,64,2,1,1,top_right,neutral,friendly,1.1748,,,,,,,,,,,,,,,,,
,,,,,613484,m,y,r,n,12,0,2025-04-05_20h49.04.380,VisualSearchFaces,2024.2.4,Win32,58.82352941,,,,,,,,604.6677,604.7914,604.7915,606.7956,block1,f,0,1,25,65,18,1,1,bottom_left,threatening,neutral,0.6716,,,,,,,,,,,,,,,,,
,,,,,613484,m,y,r,n,12,0,2025-04-05_20h49.04.380,VisualSearchFaces,2024.2.4,Win32,58.82352941,,,,,,,,607.8,607.9158,607.9159,609.9122,block1,f,1,1,26,66,32,1,0,top_right,friendly,no_target,0.782,,,,,,,,,,,,,,,,,
,,,,,613484,m,y,r,n,12,0,2025-04-05_20h49.04.380,VisualSearchFaces,2024.2.4,Win32,58.82352941,,,,,,,,610.9164,611.0398,611.0399,613.0282,block1,f,1,1,27,67,26,1,0,top_left,neutral,no_target,0.6551,,,,,,,,,,,,,,,,,
,,,,,613484,m,y,r,n,12,0,2025-04-05_20h49.04.380,VisualSearchFaces,2024.2.4,Win32,58.82352941,,,,,,,,614.032,614.1447,614.1448,616.1447,block1,j,0,1,28,68,24,1,0,bottom_right,neutral,no_target,0.0171,,,,,,,,,,,,,,,,,
,,,,,613484,m,y,r,n,12,0,2025-04-05_20h49.04.380,VisualSearchFaces,2024.2.4,Win32,58.82352941,,,,,,,,617.1485,617.2453,617.2453,619.244,block1,f,1,1,29,69,29,1,0,bottom_right,neutral,no_target,0.4832,,,,,,,,,,,,,,,,,
,,,,,613484,m,y,r,n,12,0,2025-04-05_20h49.04.380,VisualSearchFaces,2024.2.4,Win32,58.82352941,,,,,,,,620.2484,620.3609,620.361,622.3606,block1,f,0,1,30,70,19,1,1,bottom_right,threatening,neutral,0.5847,,,,,,,,,,,,,,,,,
,,,,,613484,m,y,r,n,12,0,2025-04-05_20h49.04.380,VisualSearchFaces,2024.2.4,Win32,58.82352941,,,,,,,,623.3643,623.4822,623.4822,625.4768,block1,,0,1,31,71,25,1,0,centre,neutral,no_target,,,,,,,,,,,,,,,,,,
,,,,,613484,m,y,r,n,12,0,2025-04-05_20h49.04.380,VisualSearchFaces,2024.2.4,Win32,58.82352941,,,,,,,,626.4809,626.5934,626.5935,628.5931,block1,f,1,1,32,72,20,1,0,centre,neutral,no_target,0.4672,,,,,,,,,,,,,,,,,
,,,,,613484,m,y,r,n,12,0,2025-04-05_20h49.04.380,VisualSearchFaces,2024.2.4,Win32,58.82352941,,,,,,,,629.5976,629.7183,629.7183,631.7094,block1,j,1,1,33,73,11,1,1,top_left,friendly,neutral,0.7585,,,,,,,,,,,,,,,,,
,,,,,613484,m,y,r,n,12,0,2025-04-05_20h49.04.380,VisualSearchFaces,2024.2.4,Win32,58.82352941,,,,,,,,632.7138,632.8185,632.8187,634.8092,block1,f,0,1,34,74,15,1,1,centre,threatening,neutral,1.0749,,,,,,,,,,,,,,,,,
,,,,,613484,m,y,r,n,12,0,2025-04-05_20h49.04.380,VisualSearchFaces,2024.2.4,Win32,58.82352941,,,,,,,,635.8136,635.9379,635.9379,637.9418,block1,j,1,1,35,75,6,1,1,top_left,neutral,threatening,0.6884,,,,,,,,,,,,,,,,,
,,,,,613484,m,y,r,n,12,0,2025-04-05_20h49.04.380,VisualSearchFaces,2024.2.4,Win32,58.82352941,,,,,,,,638.946,639.0582,639.0583,641.0583,block1,j,1,1,36,76,3,1,1,bottom_left,neutral,friendly,0.568,,,,,,,,,,,,,,,,,
,,,,,613484,m,y,r,n,12,0,2025-04-05_20h49.04.380,VisualSearchFaces,2024.2.4,Win32,58.82352941,,,,,,,,642.0626,642.191,642.1911,644.1915,block1,j,1,1,37,77,10,1,1,centre,friendly,neutral,0.6356,,,,,,,,,,,,,,,,,
,,,,,613484,m,y,r,n,12,0,2025-04-05_20h49.04.380,VisualSearchFaces,2024.2.4,Win32,58.82352941,,,,,,,,645.196,645.3164,645.3164,647.3073,block1,f,1,1,38,78,35,1,0,centre,threatening,no_target,0.8903,,,,,,,,,,,,,,,,,
,,,,,613484,m,y,r,n,12,0,2025-04-05_20h49.04.380,VisualSearchFaces,2024.2.4,Win32,58.82352941,,,,,,,,648.3125,648.434,648.434,650.4239,block1,j,0,1,39,79,31,1,0,top_left,friendly,no_target,0.5575,,,,,,,,,,,,,,,,,
,,,,,613484,m,y,r,n,12,0,2025-04-05_20h49.04.380,VisualSearchFaces,2024.2.4,Win32,58.82352941,,,669.2789,670.6797,space,1.3707,,671.676,671.7934,671.7934,673.7874,block2,j,1,0,0,0,16,1,1,top_left,threatening,neutral,0.8972,,650.4288,669.2718,space,18.8139,,,,,,,,,,,,
,,,,,613484,m,y,r,n,12,0,2025-04-05_20h49.04.380,VisualSearchFaces,2024.2.4,Win32,58.82352941,,,,,,,,674.7918,674.9108,674.9109,676.9039,block2,f,1,0,1,1,33,1,0,bottom_left,friendly,no_target,0.8934,,,,,,,,,,,,,,,,,
,,,,,613484,m,y,r,n,12,0,2025-04-05_20h49.04.380,VisualSearchFaces,2024.2.4,Win32,58.82352941,,,,,,,,677.9085,678.0265,678.0266,680.0204,block2,f,1,0,2,2,37,1,0,top_right,threatening,no_target,0.7276,,,,,,,,,,,,,,,,,
,,,,,613484,m,y,r,n,12,0,2025-04-05_20h49.04.380,VisualSearchFaces,2024.2.4,Win32,58.82352941,,,,,,,,681.0247,681.1365,681.1365,683.1365,block2,f,1,0,3,3,38,1,0,bottom_left,threatening,no_target,0.7008,,,,,,,,,,,,,,,,,
,,,,,613484,m,y,r,n,12,0,2025-04-05_20h49.04.380,VisualSearchFaces,2024.2.4,Win32,58.82352941,,,,,,,,684.1447,684.27,684.27,686.2695,block2,f,0,0,4,4,10,1,1,centre,friendly,neutral,0.7006,,,,,,,,,,,,,,,,,
,,,,,613484,m,y,r,n,12,0,2025-04-05_20h49.04.380,VisualSearchFaces,2024.2.4,Win32,58.82352941,,,,,,,,687.2732,687.3903,687.3903,689.3856,block2,f,1,0,5,5,39,1,0,bottom_right,threatening,no_target,0.6795,,,,,,,,,,,,,,,,,
,,,,,613484,m,y,r,n,12,0,2025-04-05_20h49.04.380,VisualSearchFaces,2024.2.4,Win32,58.82352941,,,,,,,,690.3903,690.506,690.5061,692.5021,block2,j,1,0,6,6,8,1,1,bottom_left,neutral,threatening,0.5621,,,,,,,,,,,,,,,,,
,,,,,613484,m,y,r,n,12,0,2025-04-05_20h49.04.380,VisualSearchFaces,2024.2.4,Win32,58.82352941,,,,,,,,693.5064,693.622,693.6221,695.6184,block2,j,1,0,7,7,19,1,1,bottom_right,threatening,neutral,0.6966,,,,,,,,,,,,,,,,,
,,,,,613484,m,y,r,n,12,0,2025-04-05_20h49.04.380,VisualSearchFaces,2024.2.4,Win32,58.82352941,,,,,,,,696.6218,696.7418,696.7418,698.7343,block2,f,1,0,8,8,21,1,0,top_left,neutral,no_target,0.5782,,,,,,,,,,,,,,,,,
,,,,,613484,m,y,r,n,12,0,2025-04-05_20h49.04.380,VisualSearchFaces,2024.2.4,Win32,58.82352941,,,,,,,,699.7395,699.8569,699.857,701.8504,block2,f,1,0,9,9,36,1,0,top_left,threatening,no_target,0.678,,,,,,,,,,,,,,,,,
,,,,,613484,m,y,r,n,12,0,2025-04-05_20h49.04.380,VisualSearchFaces,2024.2.4,Win32,58.82352941,,,,,,,,702.8569,703.0042,703.0043,705.0002,block2,j,1,0,10,10,9,1,1,bottom_right,neutral,threatening,0.5756,,,,,,,,,,,,,,,,,
,,,,,613484,m,y,r,n,12,0,2025-04-05_20h49.04.380,VisualSearchFaces,2024.2.4,Win32,58.82352941,,,,,,,,706.0052,706.1154,706.1154,708.1167,block2,f,1,0,11,11,32,1,0,top_right,friendly,no_target,0.6353,,,,,,,,,,,,,,,,,
,,,,,613484,m,y,r,n,12,0,2025-04-05_20h49.04.380,VisualSearchFaces,2024.2.4,Win32,58.82352941,,,,,,,,709.1217,709.2456,709.2456,711.2498,block2,f,1,0,12,12,23,1,0,bottom_left,neutral,no_target,0.5886,,,,,,,,,,,,,,,,,
,,,,,613484,m,y,r,n,12,0,2025-04-05_20h49.04.380,VisualSearchFaces,2024.2.4,Win32,58.82352941,,,,,,,,712.2539,712.3498,712.3499,714.3495,block2,f,1,0,13,13,28,1,0,bottom_left,neutral,no_target,0.5348,,,,,,,,,,,,,,,,,
,,,,,613484,m,y,r,n,12,0,2025-04-05_20h49.04.380,VisualSearchFaces,2024.2.4,Win32,58.82352941,,,,,,,,715.3532,715.4566,715.4567,717.4487,block2,f,1,0,14,14,22,1,0,top_right,neutral,no_target,0.4779,,,,,,,,,,,,,,,,,
,,,,,613484,m,y,r,n,12,0,2025-04-05_20h49.04.380,VisualSearchFaces,2024.2.4,Win32,58.82352941,,,,,,,,718.4538,718.5654,718.5656,720.5652,block2,f,1,0,15,15,27,1,0,top_right,neutral,no_target,0.3846,,,,,,,,,,,,,,,,,
,,,,,613484,m,y,r,n,12,0,2025-04-05_20h49.04.380,VisualSearchFaces,2024.2.4,Win32,58.82352941,,,,,,,,721.5699,721.6878,721.6879,723.6813,block2,j,1,0,16,16,12,1,1,top_right,friendly,neutral,1.0291,,,,,,,,,,,,,,,,,
,,,,,613484,m,y,r,n,12,0,2025-04-05_20h49.04.380,VisualSearchFaces,2024.2.4,Win32,58.82352941,,,,,,,,724.6863,724.8033,724.8033,726.7975,block2,f,1,0,17,17,25,1,0,centre,neutral,no_target,0.5124,,,,,,,,,,,,,,,,,
,,,,,613484,m,y,r,n,12,0,2025-04-05_20h49.04.380,VisualSearchFaces,2024.2.4,Win32,58.82352941,,,,,,,,727.8021,727.9145,727.9145,729.9141,block2,j,1,0,18,18,3,1,1,bottom_left,neutral,friendly,0.5715,,,,,,,,,,,,,,,,,
,,,,,613484,m,y,r,n,12,0,2025-04-05_20h49.04.380,VisualSearchFaces,2024.2.4,Win32,58.82352941,,,,,,,,730.9191,731.0305,731.0306,733.0303,block2,f,1,0,19,19,24,1,0,bottom_right,neutral,no_target,0.5172,,,,,,,,,,,,,,,,,
,,,,,613484,m,y,r,n,12,0,2025-04-05_20h49.04.380,VisualSearchFaces,2024.2.4,Win32,58.82352941,,,,,,,,734.035,734.1655,734.1656,736.1629,block2,j,1,0,20,20,18,1,1,bottom_left,threatening,neutral,0.7133,,,,,,,,,,,,,,,,,
,,,,,613484,m,y,r,n,12,0,2025-04-05_20h49.04.380,VisualSearchFaces,2024.2.4,Win32,58.82352941,,,,,,,,737.1677,737.2734,737.2735,739.2629,block2,f,1,0,21,21,30,1,0,centre,friendly,no_target,0.624,,,,,,,,,,,,,,,,,
,,,,,613484,m,y,r,n,12,0,2025-04-05_20h49.04.380,VisualSearchFaces,2024.2.4,Win32,58.82352941,,,,,,,,740.2679,740.3795,740.3795,742.3791,block2,j,0,0,22,22,34,1,0,bottom_right,friendly,no_target,0.5669,,,,,,,,,,,,,,,,,
,,,,,613484,m,y,r,n,12,0,2025-04-05_20h49.04.380,VisualSearchFaces,2024.2.4,Win32,58.82352941,,,,,,,,743.3834,743.5168,743.5169,745.5118,block2,j,1,0,23,23,2,1,1,top_right,neutral,friendly,0.6797,,,,,,,,,,,,,,,,,
,,,,,613484,m,y,r,n,12,0,2025-04-05_20h49.04.380,VisualSearchFaces,2024.2.4,Win32,58.82352941,,,,,,,,746.5165,746.6288,746.6289,748.6285,block2,j,1,0,24,24,1,1,1,top_left,neutral,friendly,0.6341,,,,,,,,,,,,,,,,,
,,,,,613484,m,y,r,n,12,0,2025-04-05_20h49.04.380,VisualSearchFaces,2024.2.4,Win32,58.82352941,,,,,,,,749.6331,749.7397,749.7398,751.7389,block2,f,1,0,25,25,26,1,0,top_left,neutral,no_target,0.5009,,,,,,,,,,,,,,,,,
,,,,,613484,m,y,r,n,12,0,2025-04-05_20h49.04.380,VisualSearchFaces,2024.2.4,Win32,58.82352941,,,,,,,,752.7418,752.8444,752.8444,754.844,block2,j,1,0,26,26,0,1,1,centre,neutral,friendly,0.4507,,,,,,,,,,,,,,,,,
,,,,,613484,m,y,r,n,12,0,2025-04-05_20h49.04.380,VisualSearchFaces,2024.2.4,Win32,58.82352941,,,,,,,,755.8491,755.9609,755.961,757.9607,block2,j,1,0,27,27,7,1,1,top_right,neutral,threatening,0.5003,,,,,,,,,,,,,,,,,
,,,,,613484,m,y,r,n,12,0,2025-04-05_20h49.04.380,VisualSearchFaces,2024.2.4,Win32,58.82352941,,,,,,,,758.9647,759.089,759.089,761.0771,block2,j,1,0,28,28,15,1,1,centre,threatening,neutral,1.1703,,,,,,,,,,,,,,,,,
,,,,,613484,m,y,r,n,12,0,2025-04-05_20h49.04.380,VisualSearchFaces,2024.2.4,Win32,58.82352941,,,,,,,,762.0809,762.1953,762.1953,764.1933,block2,f,1,0,29,29,35,1,0,centre,threatening,no_target,1.1167,,,,,,,,,,,,,,,,,
,,,,,613484,m,y,r,n,12,0,2025-04-05_20h49.04.380,VisualSearchFaces,2024.2.4,Win32,58.82352941,,,,,,,,765.1981,765.3306,765.3307,767.3259,block2,j,1,0,30,30,6,1,1,top_left,neutral,threatening,0.5946,,,,,,,,,,,,,,,,,
,,,,,613484,m,y,r,n,12,0,2025-04-05_20h49.04.380,VisualSearchFaces,2024.2.4,Win32,58.82352941,,,,,,,,768.331,768.4554,768.4554,770.4587,block2,j,1,0,31,31,13,1,1,bottom_left,friendly,neutral,0.9884,,,,,,,,,,,,,,,,,
,,,,,613484,m,y,r,n,12,0,2025-04-05_20h49.04.380,VisualSearchFaces,2024.2.4,Win32,58.82352941,,,,,,,,771.4639,771.5845,771.5846,773.5754,block2,j,0,0,32,32,29,1,0,bottom_right,neutral,no_target,1.0422,,,,,,,,,,,,,,,,,
,,,,,613484,m,y,r,n,12,0,2025-04-05_20h49.04.380,VisualSearchFaces,2024.2.4,Win32,58.82352941,,,,,,,,774.5803,774.7103,774.7104,776.7081,block2,j,1,0,33,33,17,1,1,top_right,threatening,neutral,1.1165,,,,,,,,,,,,,,,,,
,,,,,613484,m,y,r,n,12,0,2025-04-05_20h49.04.380,VisualSearchFaces,2024.2.4,Win32,58.82352941,,,,,,,,777.7131,777.835,777.8351,779.8239,block2,j,1,0,34,34,5,1,1,centre,neutral,threatening,0.81,,,,,,,,,,,,,,,,,
,,,,,613484,m,y,r,n,12,0,2025-04-05_20h49.04.380,VisualSearchFaces,2024.2.4,Win32,58.82352941,,,,,,,,780.8287,780.9247,780.9247,782.9242,block2,j,1,0,35,35,4,1,1,bottom_right,neutral,friendly,0.7832,,,,,,,,,,,,,,,,,
,,,,,613484,m,y,r,n,12,0,2025-04-05_20h49.04.380,VisualSearchFaces,2024.2.4,Win32,58.82352941,,,,,,,,783.9282,784.0406,784.0407,786.0407,block2,j,0,0,36,36,20,1,0,centre,neutral,no_target,0.8171,,,,,,,,,,,,,,,,,
,,,,,613484,m,y,r,n,12,0,2025-04-05_20h49.04.380,VisualSearchFaces,2024.2.4,Win32,58.82352941,,,,,,,,787.0452,787.1663,787.1664,789.1565,block2,j,1,0,37,37,14,1,1,bottom_right,friendly,neutral,1.0904,,,,,,,,,,,,,,,,,
,,,,,613484,m,y,r,n,12,0,2025-04-05_20h49.04.380,VisualSearchFaces,2024.2.4,Win32,58.82352941,,,,,,,,790.161,790.2568,790.2568,792.2561,block2,j,0,0,38,38,31,1,0,top_left,friendly,no_target,1.1524,,,,,,,,,,,,,,,,,
,,,,,613484,m,y,r,n,12,0,2025-04-05_20h49.04.380,VisualSearchFaces,2024.2.4,Win32,58.82352941,,,,,,,,793.2627,793.373,793.3732,795.3626,block2,j,1,0,39,39,11,1,1,top_left,friendly,neutral,0.9667,,,,,,,,,,,,,,,,,
,,,,,613484,m,y,r,n,12,0,2025-04-05_20h49.04.380,VisualSearchFaces,2024.2.4,Win32,58.82352941,,,,,,,,796.3783,796.5045,796.5046,798.5061,block2,f,1,1,0,40,23,1,0,bottom_left,neutral,no_target,1.1842,,,,,,,,,,,,,,,,,
,,,,,613484,m,y,r,n,12,0,2025-04-05_20h49.04.380,VisualSearchFaces,2024.2.4,Win32,58.82352941,,,,,,,,799.5106,799.6325,799.6326,801.6221,block2,j,0,1,1,41,33,1,0,bottom_left,friendly,no_target,0.7237,,,,,,,,,,,,,,,,,
,,,,,613484,m,y,r,n,12,0,2025-04-05_20h49.04.380,VisualSearchFaces,2024.2.4,Win32,58.82352941,,,,,,,,802.6263,802.7453,802.7454,804.7385,block2,f,1,1,2,42,28,1,0,bottom_left,neutral,no_target,0.6934,,,,,,,,,,,,,,,,,
,,,,,613484,m,y,r,n,12,0,2025-04-05_20h49.04.380,VisualSearchFaces,2024.2.4,Win32,58.82352941,,,,,,,,805.7427,805.8549,805.855,807.8543,block2,j,1,1,3,43,4,1,1,bottom_right,neutral,friendly,0.6336,,,,,,,,,,,,,,,,,
,,,,,613484,m,y,r,n,12,0,2025-04-05_20h49.04.380,VisualSearchFaces,2024.2.4,Win32,58.82352941,,,,,,,,808.8595,808.9806,808.9808,810.9704,block2,f,1,1,4,44,34,1,0,bottom_right,friendly,no_target,0.9229,,,,,,,,,,,,,,,,,
,,,,,613484,m,y,r,n,12,0,2025-04-05_20h49.04.380,VisualSearchFaces,2024.2.4,Win32,58.82352941,,,,,,,,811.9768,812.0872,812.0874,814.0872,block2,j,1,1,5,45,14,1,1,bottom_right,friendly,neutral,0.5777,,,,,,,,,,,,,,,,,
,,,,,613484,m,y,r,n,12,0,2025-04-05_20h49.04.380,VisualSearchFaces,2024.2.4,Win32,58.82352941,,,,,,,,815.0919,815.2058,815.2058,817.2033,block2,j,1,1,6,46,11,1,1,top_left,friendly,neutral,0.8304,,,,,,,,,,,,,,,,,
,,,,,613484,m,y,r,n,12,0,2025-04-05_20h49.04.380,VisualSearchFaces,2024.2.4,Win32,58.82352941,,,,,,,,818.2073,818.3273,818.3273,820.3195,block2,j,1,1,7,47,9,1,1,bottom_right,neutral,threatening,0.6101,,,,,,,,,,,,,,,,,
,,,,,613484,m,y,r,n,12,0,2025-04-05_20h49.04.380,VisualSearchFaces,2024.2.4,Win32,58.82352941,,,,,,,,821.3243,821.4479,821.4479,823.4358,block2,f,1,1,8,48,35,1,0,centre,threatening,no_target,0.5891,,,,,,,,,,,,,,,,,
,,,,,613484,m,y,r,n,12,0,2025-04-05_20h49.04.380,VisualSearchFaces,2024.2.4,Win32,58.82352941,,,,,,,,824.4404,824.5637,824.5637,826.5519,block2,j,1,1,9,49,7,1,1,top_right,neutral,threatening,0.5716,,,,,,,,,,,,,,,,,
,,,,,613484,m,y,r,n,12,0,2025-04-05_20h49.04.380,VisualSearchFaces,2024.2.4,Win32,58.82352941,,,,,,,,827.5567,827.6689,827.669,829.6684,block2,j,1,1,10,50,1,1,1,top_left,neutral,friendly,0.8007,,,,,,,,,,,,,,,,,
,,,,,613484,m,y,r,n,12,0,2025-04-05_20h49.04.380,VisualSearchFaces,2024.2.4,Win32,58.82352941,,,,,,,,830.6727,830.7892,830.7893,832.7845,block2,f,0,1,11,51,10,1,1,centre,friendly,neutral,0.7153,,,,,,,,,,,,,,,,,
,,,,,613484,m,y,r,n,12,0,2025-04-05_20h49.04.380,VisualSearchFaces,2024.2.4,Win32,58.82352941,,,,,,,,833.7888,833.9099,833.91,835.9009,block2,j,0,1,12,52,26,1,0,top_left,neutral,no_target,0.6252,,,,,,,,,,,,,,,,,
,,,,,613484,m,y,r,n,12,0,2025-04-05_20h49.04.380,VisualSearchFaces,2024.2.4,Win32,58.82352941,,,,,,,,836.906,837.0222,837.0224,839.0173,block2,f,0,1,13,53,13,1,1,bottom_left,friendly,neutral,0.6161,,,,,,,,,,,,,,,,,
,,,,,613484,m,y,r,n,12,0,2025-04-05_20h49.04.380,VisualSearchFaces,2024.2.4,Win32,58.82352941,,,,,,,,840.0217,840.1309,840.131,842.1333,block2,j,1,1,14,54,16,1,1,top_left,threatening,neutral,0.5203,,,,,,,,,,,,,,,,,
,,,,,613484,m,y,r,n,12,0,2025-04-05_20h49.04.380,VisualSearchFaces,2024.2.4,Win32,58.82352941,,,,,,,,843.1388,843.2499,843.2499,845.2499,block2,j,1,1,15,55,15,1,1,centre,threatening,neutral,0.6006,,,,,,,,,,,,,,,,,
,,,,,613484,m,y,r,n,12,0,2025-04-05_20h49.04.380,VisualSearchFaces,2024.2.4,Win32,58.82352941,,,,,,,,846.2544,846.374,846.374,848.3661,block2,f,1,1,16,56,30,1,0,centre,friendly,no_target,0.7102,,,,,,,,,,,,,,,,,
,,,,,613484,m,y,r,n,12,0,2025-04-05_20h49.04.380,VisualSearchFaces,2024.2.4,Win32,58.82352941,,,,,,,,849.3703,849.4827,849.4828,851.4824,block2,j,1,1,17,57,12,1,1,top_right,friendly,neutral,0.5501,,,,,,,,,,,,,,,,,
,,,,,613484,m,y,r,n,12,0,2025-04-05_20h49.04.380,VisualSearchFaces,2024.2.4,Win32,58.82352941,,,,,,,,852.4872,852.6105,852.6106,854.5986,block2,f,1,1,18,58,25,1,0,centre,neutral,no_target,0.7226,,,,,,,,,,,,,,,,,
,,,,,613484,m,y,r,n,12,0,2025-04-05_20h49.04.380,VisualSearchFaces,2024.2.4,Win32,58.82352941,,,,,,,,855.6036,855.7186,855.7187,857.7149,block2,j,1,1,19,59,19,1,1,bottom_right,threatening,neutral,0.5989,,,,,,,,,,,,,,,,,
,,,,,613484,m,y,r,n,12,0,2025-04-05_20h49.04.380,VisualSearchFaces,2024.2.4,Win32,58.82352941,,,,,,,,858.7196,858.8403,858.8403,860.8323,block2,f,1,1,20,60,31,1,0,top_left,friendly,no_target,0.7912,,,,,,,,,,,,,,,,,
,,,,,613484,m,y,r,n,12,0,2025-04-05_20h49.04.380,VisualSearchFaces,2024.2.4,Win32,58.82352941,,,,,,,,861.8372,861.9684,861.9684,863.9643,block2,j,1,1,21,61,2,1,1,top_right,neutral,friendly,0.5782,,,,,,,,,,,,,,,,,
,,,,,613484,m,y,r,n,12,0,2025-04-05_20h49.04.380,VisualSearchFaces,2024.2.4,Win32,58.82352941,,,,,,,,864.9683,865.0808,865.0808,867.0802,block2,j,0,1,22,62,22,1,0,top_right,neutral,no_target,0.7505,,,,,,,,,,,,,,,,,
,,,,,613484,m,y,r,n,12,0,2025-04-05_20h49.04.380,VisualSearchFaces,2024.2.4,Win32,58.82352941,,,,,,,,868.0851,868.2086,868.2087,870.1968,block2,f,0,1,23,63,18,1,1,bottom_left,threatening,neutral,0.8891,,,,,,,,,,,,,,,,,
,,,,,613484,m,y,r,n,12,0,2025-04-05_20h49.04.380,VisualSearchFaces,2024.2.4,Win32,58.82352941,,,,,,,,871.22,871.3455,871.3458,873.3469,block2,j,0,1,24,64,21,1,0,top_left,neutral,no_target,0.7846,,,,,,,,,,,,,,,,,
,,,,,613484,m,y,r,n,12,0,2025-04-05_20h49.04.380,VisualSearchFaces,2024.2.4,Win32,58.82352941,,,,,,,,874.3513,874.4581,874.4581,876.4558,block2,j,1,1,25,65,0,1,1,centre,neutral,friendly,0.6672,,,,,,,,,,,,,,,,,
,,,,,613484,m,y,r,n,12,0,2025-04-05_20h49.04.380,VisualSearchFaces,2024.2.4,Win32,58.82352941,,,,,,,,877.4503,877.5624,877.5624,879.5625,block2,f,1,1,26,66,29,1,0,bottom_right,neutral,no_target,0.7353,,,,,,,,,,,,,,,,,
,,,,,613484,m,y,r,n,12,0,2025-04-05_20h49.04.380,VisualSearchFaces,2024.2.4,Win32,58.82352941,,,,,,,,880.5666,880.679,880.679,882.6784,block2,j,1,1,27,67,3,1,1,bottom_left,neutral,friendly,0.5835,,,,,,,,,,,,,,,,,
,,,,,613484,m,y,r,n,12,0,2025-04-05_20h49.04.380,VisualSearchFaces,2024.2.4,Win32,58.82352941,,,,,,,,883.6834,883.8091,883.8092,885.8113,block2,j,1,1,28,68,17,1,1,top_right,threatening,neutral,0.9868,,,,,,,,,,,,,,,,,
,,,,,613484,m,y,r,n,12,0,2025-04-05_20h49.04.380,VisualSearchFaces,2024.2.4,Win32,58.82352941,,,,,,,,886.8159,886.9279,886.9279,888.9279,block2,f,1,1,29,69,27,1,0,top_right,neutral,no_target,0.7501,,,,,,,,,,,,,,,,,
,,,,,613484,m,y,r,n,12,0,2025-04-05_20h49.04.380,VisualSearchFaces,2024.2.4,Win32,58.82352941,,,,,,,,889.9314,890.0483,890.0483,892.0442,block2,f,1,1,30,70,38,1,0,bottom_left,threatening,no_target,0.6817,,,,,,,,,,,,,,,,,
,,,,,613484,m,y,r,n,12,0,2025-04-05_20h49.04.380,VisualSearchFaces,2024.2.4,Win32,58.82352941,,,,,,,,893.0488,893.1649,893.165,895.1607,block2,j,1,1,31,71,5,1,1,centre,neutral,threatening,0.6967,,,,,,,,,,,,,,,,,
,,,,,613484,m,y,r,n,12,0,2025-04-05_20h49.04.380,VisualSearchFaces,2024.2.4,Win32,58.82352941,,,,,,,,896.1655,896.2608,896.2608,898.2603,block2,f,1,1,32,72,24,1,0,bottom_right,neutral,no_target,0.646,,,,,,,,,,,,,,,,,
,,,,,613484,m,y,r,n,12,0,2025-04-05_20h49.04.380,VisualSearchFaces,2024.2.4,Win32,58.82352941,,,,,,,,899.2641,899.3772,899.3773,901.3764,block2,f,1,1,33,73,20,1,0,centre,neutral,no_target,0.5848,,,,,,,,,,,,,,,,,
,,,,,613484,m,y,r,n,12,0,2025-04-05_20h49.04.380,VisualSearchFaces,2024.2.4,Win32,58.82352941,,,,,,,,902.3804,902.4994,902.4996,904.4923,block2,j,0,1,34,74,32,1,0,top_right,friendly,no_target,0.7731,,,,,,,,,,,,,,,,,
,,,,,613484,m,y,r,n,12,0,2025-04-05_20h49.04.380,VisualSearchFaces,2024.2.4,Win32,58.82352941,,,,,,,,905.4971,905.6153,905.6154,907.6091,block2,f,1,1,35,75,39,1,0,bottom_right,threatening,no_target,0.7443,,,,,,,,,,,,,,,,,
,,,,,613484,m,y,r,n,12,0,2025-04-05_20h49.04.380,VisualSearchFaces,2024.2.4,Win32,58.82352941,,,,,,,,908.614,908.7252,908.7253,910.725,block2,f,1,1,36,76,37,1,0,top_right,threatening,no_target,0.5839,,,,,,,,,,,,,,,,,
,,,,,613484,m,y,r,n,12,0,2025-04-05_20h49.04.380,VisualSearchFaces,2024.2.4,Win32,58.82352941,,,,,,,,911.731,911.8414,911.8415,913.8412,block2,f,1,1,37,77,36,1,0,top_left,threatening,no_target,0.7018,,,,,,,,,,,,,,,,,
,,,,,613484,m,y,r,n,12,0,2025-04-05_20h49.04.380,VisualSearchFaces,2024.2.4,Win32,58.82352941,,,,,,,,914.8456,914.9769,914.977,916.9743,block2,j,1,1,38,78,8,1,1,bottom_left,neutral,threatening,0.6313,,,,,,,,,,,,,,,,,
,,,,,613484,m,y,r,n,12,0,2025-04-05_20h49.04.380,VisualSearchFaces,2024.2.4,Win32,58.82352941,,,,,,,,917.9789,918.0909,918.0909,920.0908,block2,j,1,1,39,79,6,1,1,top_left,neutral,threatening,0.584,,,,,,,,,,,,,,,,,
,,,,,613484,m,y,r,n,12,0,2025-04-05_20h49.04.380,VisualSearchFaces,2024.2.4,Win32,58.82352941,,,936.513,946.304,space,9.7592,,947.3092,947.4229,947.423,949.4208,block3,j,0,0,0,0,23,1,0,bottom_left,neutral,no_target,0.8498,,920.0945,936.5053,space,16.3823,,,,,,,,,,,,
,,,,,613484,m,y,r,n,12,0,2025-04-05_20h49.04.380,VisualSearchFaces,2024.2.4,Win32,58.82352941,,,,,,,,950.4251,950.5374,950.5375,952.5372,block3,f,1,0,1,1,22,1,0,top_right,neutral,no_target,0.6003,,,,,,,,,,,,,,,,,
,,,,,613484,m,y,r,n,12,0,2025-04-05_20h49.04.380,VisualSearchFaces,2024.2.4,Win32,58.82352941,,,,,,,,953.541,953.6625,953.6626,955.653,block3,f,1,0,2,2,31,1,0,top_left,friendly,no_target,0.8086,,,,,,,,,,,,,,,,,
,,,,,613484,m,y,r,n,12,0,2025-04-05_20h49.04.380,VisualSearchFaces,2024.2.4,Win32,58.82352941,,,,,,,,956.6588,956.7693,956.7693,958.7691,block3,j,1,0,3,3,11,1,1,top_left,friendly,neutral,0.5851,,,,,,,,,,,,,,,,,
,,,,,613484,m,y,r,n,12,0,2025-04-05_20h49.04.380,VisualSearchFaces,2024.2.4,Win32,58.82352941,,,,,,,,959.7738,959.8851,959.8851,961.885,block3,j,1,0,4,4,12,1,1,top_right,friendly,neutral,1.0847,,,,,,,,,,,,,,,,,
,,,,,613484,m,y,r,n,12,0,2025-04-05_20h49.04.380,VisualSearchFaces,2024.2.4,Win32,58.82352941,,,,,,,,962.8928,963.013,963.0131,965.0017,block3,f,1,0,5,5,37,1,0,top_right,threatening,no_target,0.7571,,,,,,,,,,,,,,,,,
,,,,,613484,m,y,r,n,12,0,2025-04-05_20h49.04.380,VisualSearchFaces,2024.2.4,Win32,58.82352941,,,,,,,,966.0066,966.1241,966.1241,968.1178,block3,j,1,0,6,6,3,1,1,bottom_left,neutral,friendly,0.6618,,,,,,,,,,,,,,,,,
,,,,,613484,m,y,r,n,12,0,2025-04-05_20h49.04.380,VisualSearchFaces,2024.2.4,Win32,58.82352941,,,,,,,,969.123,969.2403,969.2404,971.2345,block3,j,1,0,7,7,19,1,1,bottom_right,threatening,neutral,0.7439,,,,,,,,,,,,,,,,,
,,,,,613484,m,y,r,n,12,0,2025-04-05_20h49.04.380,VisualSearchFaces,2024.2.4,Win32,58.82352941,,,,,,,,972.2386,972.3641,972.3642,974.3674,block3,f,1,0,8,8,26,1,0,top_left,neutral,no_target,0.7695,,,,,,,,,,,,,,,,,
,,,,,613484,m,y,r,n,12,0,2025-04-05_20h49.04.380,VisualSearchFaces,2024.2.4,Win32,58.82352941,,,,,,,,975.3726,975.4837,975.4837,977.4836,block3,j,1,0,9,9,5,1,1,centre,neutral,threatening,0.5178,,,,,,,,,,,,,,,,,
,,,,,613484,m,y,r,n,12,0,2025-04-05_20h49.04.380,VisualSearchFaces,2024.2.4,Win32,58.82352941,,,,,,,,978.4886,978.6001,978.6001,980.5998,block3,j,0,0,10,10,27,1,0,top_right,neutral,no_target,0.7365,,,,,,,,,,,,,,,,,
,,,,,613484,m,y,r,n,12,0,2025-04-05_20h49.04.380,VisualSearchFaces,2024.2.4,Win32,58.82352941,,,,,,,,981.6044,981.7167,981.7167,983.7161,block3,f,1,0,11,11,29,1,0,bottom_right,neutral,no_target,0.8167,,,,,,,,,,,,,,,,,
,,,,,613484,m,y,r,n,12,0,2025-04-05_20h49.04.380,VisualSearchFaces,2024.2.4,Win32,58.82352941,,,,,,,,984.7202,984.8237,984.8238,986.8155,block3,f,1,0,12,12,21,1,0,top_left,neutral,no_target,0.6438,,,,,,,,,,,,,,,,,
,,,,,613484,m,y,r,n,12,0,2025-04-05_20h49.04.380,VisualSearchFaces,2024.2.4,Win32,58.82352941,,,,,,,,987.8206,987.9223,987.9223,989.9155,block3,f,0,0,13,13,14,1,1,bottom_right,friendly,neutral,0.7452,,,,,,,,,,,,,,,,,
,,,,,613484,m,y,r,n,12,0,2025-04-05_20h49.04.380,VisualSearchFaces,2024.2.4,Win32,58.82352941,,,,,,,,990.9199,991.032,991.0321,993.0317,block3,f,1,0,14,14,34,1,0,bottom_right,friendly,no_target,0.6512,,,,,,,,,,,,,,,,,
,,,,,613484,m,y,r,n,12,0,2025-04-05_20h49.04.380,VisualSearchFaces,2024.2.4,Win32,58.82352941,,,,,,,,994.0351,994.1477,994.1477,996.1477,block3,f,1,0,15,15,33,1,0,bottom_left,friendly,no_target,0.6181,,,,,,,,,,,,,,,,,
,,,,,613484,m,y,r,n,12,0,2025-04-05_20h49.04.380,VisualSearchFaces,2024.2.4,Win32,58.82352941,,,,,,,,997.152,997.2721,997.2721,999.2642,block3,j,1,0,16,16,18,1,1,bottom_left,threatening,neutral,0.9093,,,,,,,,,,,,,,,,,
,,,,,613484,m,y,r,n,12,0,2025-04-05_20h49.04.380,VisualSearchFaces,2024.2.4,Win32,58.82352941,,,,,,,,1000.2693,1000.3723,1000.3724,1002.364,block3,f,0,0,17,17,17,1,1,top_right,threatening,neutral,0.5761,,,,,,,,,,,,,,,,,
,,,,,613484,m,y,r,n,12,0,2025-04-05_20h49.04.380,VisualSearchFaces,2024.2.4,Win32,58.82352941,,,,,,,,1003.3685,1003.4915,1003.4916,1005.4802,block3,f,0,0,18,18,9,1,1,bottom_right,neutral,threatening,0.8228,,,,,,,,,,,,,,,,,
,,,,,613484,m,y,r,n,12,0,2025-04-05_20h49.04.380,VisualSearchFaces,2024.2.4,Win32,58.82352941,,,,,,,,1006.4857,1006.6168,1006.6168,1008.6131,block3,j,1,0,19,19,15,1,1,centre,threatening,neutral,0.947,,,,,,,,,,,,,,,,,
,,,,,613484,m,y,r,n,12,0,2025-04-05_20h49.04.380,VisualSearchFaces,2024.2.4,Win32,58.82352941,,,,,,,,1009.6208,1009.7459,1009.746,1011.7461,block3,j,1,0,20,20,0,1,1,centre,neutral,friendly,0.618,,,,,,,,,,,,,,,,,
,,,,,613484,m,y,r,n,12,0,2025-04-05_20h49.04.380,VisualSearchFaces,2024.2.4,Win32,58.82352941,,,,,,,,1012.7498,1012.8632,1012.8632,1014.8627,block3,j,1,0,21,21,8,1,1,bottom_left,neutral,threatening,0.6513,,,,,,,,,,,,,,,,,
,,,,,613484,m,y,r,n,12,0,2025-04-05_20h49.04.380,VisualSearchFaces,2024.2.4,Win32,58.82352941,,,,,,,,1015.8667,1015.9751,1015.9751,1017.9726,block3,f,1,0,22,22,24,1,0,bottom_right,neutral,no_target,0.851,,,,,,,,,,,,,,,,,
,,,,,613484,m,y,r,n,12,0,2025-04-05_20h49.04.380,VisualSearchFaces,2024.2.4,Win32,58.82352941,,,,,,,,1018.9761,1019.0736,1019.0736,1021.0723,block3,f,1,0,23,23,25,1,0,centre,neutral,no_target,0.5842,,,,,,,,,,,,,,,,,
,,,,,613484,m,y,r,n,12,0,2025-04-05_20h49.04.380,VisualSearchFaces,2024.2.4,Win32,58.82352941,,,,,,,,1022.076,1022.1784,1022.1785,1024.1777,block3,j,1,0,24,24,6,1,1,top_left,neutral,threatening,0.5181,,,,,,,,,,,,,,,,,
,,,,,613484,m,y,r,n,12,0,2025-04-05_20h49.04.380,VisualSearchFaces,2024.2.4,Win32,58.82352941,,,,,,,,1025.1827,1025.2945,1025.2945,1027.2942,block3,j,1,0,25,25,2,1,1,top_right,neutral,friendly,0.8837,,,,,,,,,,,,,,,,,
,,,,,613484,m,y,r,n,12,0,2025-04-05_20h49.04.380,VisualSearchFaces,2024.2.4,Win32,58.82352941,,,,,,,,1028.2985,1028.4105,1028.4105,1030.4105,block3,j,1,0,26,26,1,1,1,top_left,neutral,friendly,0.7683,,,,,,,,,,,,,,,,,
,,,,,613484,m,y,r,n,12,0,2025-04-05_20h49.04.380,VisualSearchFaces,2024.2.4,Win32,58.82352941,,,,,,,,1031.4151,1031.5336,1031.5337,1033.5267,block3,f,1,0,27,27,36,1,0,top_left,threatening,no_target,0.7446,,,,,,,,,,,,,,,,,
,,,,,613484,m,y,r,n,12,0,2025-04-05_20h49.04.380,VisualSearchFaces,2024.2.4,Win32,58.82352941,,,,,,,,1034.5314,1034.6433,1034.6434,1036.6429,block3,f,1,0,28,28,38,1,0,bottom_left,threatening,no_target,0.9524,,,,,,,,,,,,,,,,,
,,,,,613484,m,y,r,n,12,0,2025-04-05_20h49.04.380,VisualSearchFaces,2024.2.4,Win32,58.82352941,,,,,,,,1037.6483,1037.779,1037.7791,1039.7759,block3,j,1,0,29,29,4,1,1,bottom_right,neutral,friendly,0.5812,,,,,,,,,,,,,,,,,
,,,,,613484,m,y,r,n,12,0,2025-04-05_20h49.04.380,VisualSearchFaces,2024.2.4,Win32,58.82352941,,,,,,,,1040.7805,1040.8962,1040.8962,1042.8921,block3,f,1,0,30,30,35,1,0,centre,threatening,no_target,1.5512,,,,,,,,,,,,,,,,,
,,,,,613484,m,y,r,n,12,0,2025-04-05_20h49.04.380,VisualSearchFaces,2024.2.4,Win32,58.82352941,,,,,,,,1043.8973,1044.0106,1044.0106,1046.0083,block3,j,1,0,31,31,7,1,1,top_right,neutral,threatening,0.5689,,,,,,,,,,,,,,,,,
,,,,,613484,m,y,r,n,12,0,2025-04-05_20h49.04.380,VisualSearchFaces,2024.2.4,Win32,58.82352941,,,,,,,,1047.0124,1047.1253,1047.1253,1049.1247,block3,f,1,0,32,32,20,1,0,centre,neutral,no_target,0.6341,,,,,,,,,,,,,,,,,
,,,,,613484,m,y,r,n,12,0,2025-04-05_20h49.04.380,VisualSearchFaces,2024.2.4,Win32,58.82352941,,,,,,,,1050.1298,1050.2454,1050.2455,1052.241,block3,f,1,0,33,33,39,1,0,bottom_right,threatening,no_target,0.6788,,,,,,,,,,,,,,,,,
,,,,,613484,m,y,r,n,12,0,2025-04-05_20h49.04.380,VisualSearchFaces,2024.2.4,Win32,58.82352941,,,,,,,,1053.2451,1053.3578,1053.3579,1055.3574,block3,f,1,0,34,34,32,1,0,top_right,friendly,no_target,0.6171,,,,,,,,,,,,,,,,,
,,,,,613484,m,y,r,n,12,0,2025-04-05_20h49.04.380,VisualSearchFaces,2024.2.4,Win32,58.82352941,,,,,,,,1056.3614,1056.4805,1056.4806,1058.4738,block3,f,1,0,35,35,28,1,0,bottom_left,neutral,no_target,0.5765,,,,,,,,,,,,,,,,,
,,,,,613484,m,y,r,n,12,0,2025-04-05_20h49.04.380,VisualSearchFaces,2024.2.4,Win32,58.82352941,,,,,,,,1059.4783,1059.5963,1059.5963,1061.5896,block3,f,0,0,36,36,13,1,1,bottom_left,friendly,neutral,0.711,,,,,,,,,,,,,,,,,
,,,,,613484,m,y,r,n,12,0,2025-04-05_20h49.04.380,VisualSearchFaces,2024.2.4,Win32,58.82352941,,,,,,,,1062.5956,1062.7066,1062.7066,1064.7062,block3,j,1,0,37,37,10,1,1,centre,friendly,neutral,0.8012,,,,,,,,,,,,,,,,,
,,,,,613484,m,y,r,n,12,0,2025-04-05_20h49.04.380,VisualSearchFaces,2024.2.4,Win32,58.82352941,,,,,,,,1065.7112,1065.823,1065.8231,1067.8225,block3,f,1,0,38,38,30,1,0,centre,friendly,no_target,0.8265,,,,,,,,,,,,,,,,,
,,,,,613484,m,y,r,n,12,0,2025-04-05_20h49.04.380,VisualSearchFaces,2024.2.4,Win32,58.82352941,,,,,,,,1068.8265,1068.9481,1068.9481,1070.9388,block3,j,1,0,39,39,16,1,1,top_left,threatening,neutral,0.8582,,,,,,,,,,,,,,,,,
,,,,,613484,m,y,r,n,12,0,2025-04-05_20h49.04.380,VisualSearchFaces,2024.2.4,Win32,58.82352941,,,,,,,,1071.9435,1072.0579,1072.0579,1074.0554,block3,f,1,1,0,40,31,1,0,top_left,friendly,no_target,0.6984,,,,,,,,,,,,,,,,,
,,,,,613484,m,y,r,n,12,0,2025-04-05_20h49.04.380,VisualSearchFaces,2024.2.4,Win32,58.82352941,,,,,,,,1075.061,1075.1929,1075.193,1077.1879,block3,f,0,1,1,41,15,1,1,centre,threatening,neutral,0.7454,,,,,,,,,,,,,,,,,
,,,,,613484,m,y,r,n,12,0,2025-04-05_20h49.04.380,VisualSearchFaces,2024.2.4,Win32,58.82352941,,,,,,,,1078.1931,1078.3045,1078.3046,1080.3045,block3,f,1,1,2,42,38,1,0,bottom_left,threatening,no_target,0.8169,,,,,,,,,,,,,,,,,
,,,,,613484,m,y,r,n,12,0,2025-04-05_20h49.04.380,VisualSearchFaces,2024.2.4,Win32,58.82352941,,,,,,,,1081.3086,1081.4285,1081.4285,1083.4206,block3,j,0,1,3,43,32,1,0,top_right,friendly,no_target,0.7292,,,,,,,,,,,,,,,,,
,,,,,613484,m,y,r,n,12,0,2025-04-05_20h49.04.380,VisualSearchFaces,2024.2.4,Win32,58.82352941,,,,,,,,1084.4257,1084.5371,1084.5372,1086.5372,block3,f,1,1,4,44,33,1,0,bottom_left,friendly,no_target,0.5837,,,,,,,,,,,,,,,,,
,,,,,613484,m,y,r,n,12,0,2025-04-05_20h49.04.380,VisualSearchFaces,2024.2.4,Win32,58.82352941,,,,,,,,1087.5409,1087.6535,1087.6535,1089.6532,block3,j,1,1,5,45,10,1,1,centre,friendly,neutral,0.7366,,,,,,,,,,,,,,,,,
,,,,,613484,m,y,r,n,12,0,2025-04-05_20h49.04.380,VisualSearchFaces,2024.2.4,Win32,58.82352941,,,,,,,,1090.6579,1090.7869,1090.787,1092.7861,block3,j,1,1,6,46,3,1,1,bottom_left,neutral,friendly,0.9334,,,,,,,,,,,,,,,,,
,,,,,613484,m,y,r,n,12,0,2025-04-05_20h49.04.380,VisualSearchFaces,2024.2.4,Win32,58.82352941,,,,,,,,1093.7902,1093.9091,1093.9092,1095.9025,block3,f,1,1,7,47,30,1,0,centre,friendly,no_target,0.6615,,,,,,,,,,,,,,,,,
,,,,,613484,m,y,r,n,12,0,2025-04-05_20h49.04.380,VisualSearchFaces,2024.2.4,Win32,58.82352941,,,,,,,,1096.907,1097.0263,1097.0264,1099.0185,block3,j,1,1,8,48,1,1,1,top_left,neutral,friendly,0.6434,,,,,,,,,,,,,,,,,
,,,,,613484,m,y,r,n,12,0,2025-04-05_20h49.04.380,VisualSearchFaces,2024.2.4,Win32,58.82352941,,,,,,,,1100.0228,1100.1438,1100.1439,1102.1348,block3,f,0,1,9,49,12,1,1,top_right,friendly,neutral,0.6772,,,,,,,,,,,,,,,,,
,,,,,613484,m,y,r,n,12,0,2025-04-05_20h49.04.380,VisualSearchFaces,2024.2.4,Win32,58.82352941,,,,,,,,1103.1392,1103.2573,1103.2574,1105.2512,block3,j,0,1,10,50,35,1,0,centre,threatening,no_target,0.711,,,,,,,,,,,,,,,,,
,,,,,613484,m,y,r,n,12,0,2025-04-05_20h49.04.380,VisualSearchFaces,2024.2.4,Win32,58.82352941,,,,,,,,1106.2556,1106.3713,1106.3715,1108.3678,block3,f,1,1,11,51,21,1,0,top_left,neutral,no_target,0.6815,,,,,,,,,,,,,,,,,
,,,,,613484,m,y,r,n,12,0,2025-04-05_20h49.04.380,VisualSearchFaces,2024.2.4,Win32,58.82352941,,,,,,,,1109.3723,1109.4912,1109.4912,1111.4838,block3,f,1,1,12,52,37,1,0,top_right,threatening,no_target,0.6781,,,,,,,,,,,,,,,,,
,,,,,613484,m,y,r,n,12,0,2025-04-05_20h49.04.380,VisualSearchFaces,2024.2.4,Win32,58.82352941,,,,,,,,1112.4886,1112.6061,1112.6061,1114.6001,block3,j,1,1,13,53,13,1,1,bottom_left,friendly,neutral,0.6284,,,,,,,,,,,,,,,,,
,,,,,613484,m,y,r,n,12,0,2025-04-05_20h49.04.380,VisualSearchFaces,2024.2.4,Win32,58.82352941,,,,,,,,1115.605,1115.7212,1115.7212,1117.7164,block3,f,1,1,14,54,22,1,0,top_right,neutral,no_target,0.7284,,,,,,,,,,,,,,,,,
,,,,,613484,m,y,r,n,12,0,2025-04-05_20h49.04.380,VisualSearchFaces,2024.2.4,Win32,58.82352941,,,,,,,,1118.7225,1118.833,1118.833,1120.8328,block3,f,1,1,15,55,25,1,0,centre,neutral,no_target,0.4834,,,,,,,,,,,,,,,,,
,,,,,613484,m,y,r,n,12,0,2025-04-05_20h49.04.380,VisualSearchFaces,2024.2.4,Win32,58.82352941,,,,,,,,1121.8404,1121.9494,1121.9495,1123.9486,block3,f,1,1,16,56,28,1,0,bottom_left,neutral,no_target,0.5535,,,,,,,,,,,,,,,,,
,,,,,613484,m,y,r,n,12,0,2025-04-05_20h49.04.380,VisualSearchFaces,2024.2.4,Win32,58.82352941,,,,,,,,1124.9554,1125.076,1125.0761,1127.0653,block3,f,1,1,17,57,34,1,0,bottom_right,friendly,no_target,0.6879,,,,,,,,,,,,,,,,,
,,,,,613484,m,y,r,n,12,0,2025-04-05_20h49.04.380,VisualSearchFaces,2024.2.4,Win32,58.82352941,,,,,,,,1128.0696,1128.1932,1128.1933,1130.1815,block3,f,1,1,18,58,20,1,0,centre,neutral,no_target,0.571,,,,,,,,,,,,,,,,,
,,,,,613484,m,y,r,n,12,0,2025-04-05_20h49.04.380,VisualSearchFaces,2024.2.4,Win32,58.82352941,,,,,,,,1131.1859,1131.3037,1131.3039,1133.2977,block3,j,1,1,19,59,14,1,1,bottom_right,friendly,neutral,0.7783,,,,,,,,,,,,,,,,,
,,,,,613484,m,y,r,n,12,0,2025-04-05_20h49.04.380,VisualSearchFaces,2024.2.4,Win32,58.82352941,,,,,,,,1134.303,1134.4167,1134.4168,1136.4141,block3,j,1,1,20,60,18,1,1,bottom_left,threatening,neutral,0.6977,,,,,,,,,,,,,,,,,
,,,,,613484,m,y,r,n,12,0,2025-04-05_20h49.04.380,VisualSearchFaces,2024.2.4,Win32,58.82352941,,,,,,,,1137.4187,1137.5395,1137.5396,1139.5303,block3,j,1,1,21,61,0,1,1,centre,neutral,friendly,0.693,,,,,,,,,,,,,,,,,
,,,,,613484,m,y,r,n,12,0,2025-04-05_20h49.04.380,VisualSearchFaces,2024.2.4,Win32,58.82352941,,,,,,,,1140.5345,1140.6504,1140.6504,1142.6466,block3,f,0,1,22,62,11,1,1,top_left,friendly,neutral,0.6307,,,,,,,,,,,,,,,,,
,,,,,613484,m,y,r,n,12,0,2025-04-05_20h49.04.380,VisualSearchFaces,2024.2.4,Win32,58.82352941,,,,,,,,1143.6514,1143.7775,1143.7776,1145.7789,block3,j,1,1,23,63,7,1,1,top_right,neutral,threatening,0.5363,,,,,,,,,,,,,,,,,
,,,,,613484,m,y,r,n,12,0,2025-04-05_20h49.04.380,VisualSearchFaces,2024.2.4,Win32,58.82352941,,,,,,,,1146.7841,1146.8961,1146.8961,1148.8959,block3,j,1,1,24,64,2,1,1,top_right,neutral,friendly,0.5029,,,,,,,,,,,,,,,,,
,,,,,613484,m,y,r,n,12,0,2025-04-05_20h49.04.380,VisualSearchFaces,2024.2.4,Win32,58.82352941,,,,,,,,1149.9008,1150.0125,1150.0126,1152.0121,block3,f,1,1,25,65,29,1,0,bottom_right,neutral,no_target,0.4673,,,,,,,,,,,,,,,,,
,,,,,613484,m,y,r,n,12,0,2025-04-05_20h49.04.380,VisualSearchFaces,2024.2.4,Win32,58.82352941,,,,,,,,1153.0179,1153.1411,1153.1412,1155.145,block3,j,1,1,26,66,16,1,1,top_left,threatening,neutral,0.6247,,,,,,,,,,,,,,,,,
,,,,,613484,m,y,r,n,12,0,2025-04-05_20h49.04.380,VisualSearchFaces,2024.2.4,Win32,58.82352941,,,,,,,,1156.1523,1156.265,1156.265,1158.2614,block3,f,1,1,27,67,26,1,0,top_left,neutral,no_target,0.7807,,,,,,,,,,,,,,,,,
,,,,,613484,m,y,r,n,12,0,2025-04-05_20h49.04.380,VisualSearchFaces,2024.2.4,Win32,58.82352941,,,,,,,,1159.266,1159.378,1159.378,1161.3775,block3,j,1,1,28,68,8,1,1,bottom_left,neutral,threatening,0.4507,,,,,,,,,,,,,,,,,
,,,,,613484,m,y,r,n,12,0,2025-04-05_20h49.04.380,VisualSearchFaces,2024.2.4,Win32,58.82352941,,,,,,,,1162.3822,1162.4854,1162.4854,1164.4771,block3,j,1,1,29,69,5,1,1,centre,neutral,threatening,0.6309,,,,,,,,,,,,,,,,,
,,,,,613484,m,y,r,n,12,0,2025-04-05_20h49.04.380,VisualSearchFaces,2024.2.4,Win32,58.82352941,,,,,,,,1165.482,1165.605,1165.605,1167.5934,block3,j,1,1,30,70,19,1,1,bottom_right,threatening,neutral,0.8396,,,,,,,,,,,,,,,,,
,,,,,613484,m,y,r,n,12,0,2025-04-05_20h49.04.380,VisualSearchFaces,2024.2.4,Win32,58.82352941,,,,,,,,1168.5987,1168.7179,1168.718,1170.7099,block3,j,1,1,31,71,4,1,1,bottom_right,neutral,friendly,0.4779,,,,,,,,,,,,,,,,,
,,,,,613484,m,y,r,n,12,0,2025-04-05_20h49.04.380,VisualSearchFaces,2024.2.4,Win32,58.82352941,,,,,,,,1171.715,1171.8312,1171.8313,1173.8263,block3,f,1,1,32,72,27,1,0,top_right,neutral,no_target,0.6468,,,,,,,,,,,,,,,,,
,,,,,613484,m,y,r,n,12,0,2025-04-05_20h49.04.380,VisualSearchFaces,2024.2.4,Win32,58.82352941,,,,,,,,1174.8309,1174.9548,1174.9548,1176.9585,block3,f,1,1,33,73,36,1,0,top_left,threatening,no_target,1.0387,,,,,,,,,,,,,,,,,
,,,,,613484,m,y,r,n,12,0,2025-04-05_20h49.04.380,VisualSearchFaces,2024.2.4,Win32,58.82352941,,,,,,,,1177.9635,1178.0754,1178.0755,1180.0755,block3,f,1,1,34,74,39,1,0,bottom_right,threatening,no_target,0.7503,,,,,,,,,,,,,,,,,
,,,,,613484,m,y,r,n,12,0,2025-04-05_20h49.04.380,VisualSearchFaces,2024.2.4,Win32,58.82352941,,,,,,,,1181.0804,1181.2098,1181.2099,1183.2084,block3,j,1,1,35,75,9,1,1,bottom_right,neutral,threatening,0.6308,,,,,,,,,,,,,,,,,
,,,,,613484,m,y,r,n,12,0,2025-04-05_20h49.04.380,VisualSearchFaces,2024.2.4,Win32,58.82352941,,,,,,,,1184.2122,1184.3251,1184.3252,1186.3245,block3,j,1,1,36,76,6,1,1,top_left,neutral,threatening,0.6504,,,,,,,,,,,,,,,,,
,,,,,613484,m,y,r,n,12,0,2025-04-05_20h49.04.380,VisualSearchFaces,2024.2.4,Win32,58.82352941,,,,,,,,1187.3283,1187.4412,1187.4414,1189.4409,block3,f,1,1,37,77,24,1,0,bottom_right,neutral,no_target,0.6014,,,,,,,,,,,,,,,,,
,,,,,613484,m,y,r,n,12,0,2025-04-05_20h49.04.380,VisualSearchFaces,2024.2.4,Win32,58.82352941,,,,,,,,1190.4386,1190.5362,1190.5362,1192.5403,block3,f,1,1,38,78,23,1,0,bottom_left,neutral,no_target,0.6221,,,,,,,,,,,,,,,,,
,,,,,613484,m,y,r,n,12,0,2025-04-05_20h49.04.380,VisualSearchFaces,2024.2.4,Win32,58.82352941,,,,,,,,1193.5453,1193.6686,1193.6687,1195.6567,block3,f,0,1,39,79,17,1,1,top_right,threatening,neutral,0.6709,,,,,,,,,,,,,,,,,
,,,,,613484,m,y,r,n,12,0,2025-04-05_20h49.04.380,VisualSearchFaces,2024.2.4,Win32,58.82352941,,,1199.9473,1284.2459,space,84.2656,,1285.2505,1285.372,1285.3721,1287.3622,block4,j,1,0,0,0,6,1,1,top_left,neutral,threatening,0.8068,,1195.6615,1199.9397,space,4.2489,,,,,,,,,,,,
,,,,,613484,m,y,r,n,12,0,2025-04-05_20h49.04.380,VisualSearchFaces,2024.2.4,Win32,58.82352941,,,,,,,,1288.367,1288.4869,1288.4869,1290.4785,block4,f,0,0,1,1,13,1,1,bottom_left,friendly,neutral,1.1574,,,,,,,,,,,,,,,,,
,,,,,613484,m,y,r,n,12,0,2025-04-05_20h49.04.380,VisualSearchFaces,2024.2.4,Win32,58.82352941,,,,,,,,1291.4827,1291.5951,1291.5952,1293.5946,block4,j,1,0,2,2,11,1,1,top_left,friendly,neutral,0.5192,,,,,,,,,,,,,,,,,
,,,,,613484,m,y,r,n,12,0,2025-04-05_20h49.04.380,VisualSearchFaces,2024.2.4,Win32,58.82352941,,,,,,,,1294.5997,1294.7185,1294.7185,1296.7112,block4,f,1,0,3,3,21,1,0,top_left,neutral,no_target,0.745,,,,,,,,,,,,,,,,,
,,,,,613484,m,y,r,n,12,0,2025-04-05_20h49.04.380,VisualSearchFaces,2024.2.4,Win32,58.82352941,,,,,,,,1297.7148,1297.811,1297.811,1299.8107,block4,j,1,0,4,4,3,1,1,bottom_left,neutral,friendly,0.567,,,,,,,,,,,,,,,,,
,,,,,613484,m,y,r,n,12,0,2025-04-05_20h49.04.380,VisualSearchFaces,2024.2.4,Win32,58.82352941,,,,,,,,1300.8153,1300.9413,1300.9413,1302.9546,block4,f,1,0,5,5,31,1,0,top_left,friendly,no_target,0.8695,,,,,,,,,,,,,,,,,
,,,,,613484,m,y,r,n,12,0,2025-04-05_20h49.04.380,VisualSearchFaces,2024.2.4,Win32,58.82352941,,,,,,,,1303.9488,1304.0653,1304.0654,1306.0598,block4,j,1,0,6,6,17,1,1,top_right,threatening,neutral,0.6956,,,,,,,,,,,,,,,,,
,,,,,613484,m,y,r,n,12,0,2025-04-05_20h49.04.380,VisualSearchFaces,2024.2.4,Win32,58.82352941,,,,,,,,1307.0649,1307.1861,1307.1862,1309.1763,block4,j,1,0,7,7,7,1,1,top_right,neutral,threatening,0.5064,,,,,,,,,,,,,,,,,
,,,,,613484,m,y,r,n,12,0,2025-04-05_20h49.04.380,VisualSearchFaces,2024.2.4,Win32,58.82352941,,,,,,,,1310.181,1310.2927,1310.2927,1312.2926,block4,j,1,0,8,8,0,1,1,centre,neutral,friendly,0.5011,,,,,,,,,,,,,,,,,
,,,,,613484,m,y,r,n,12,0,2025-04-05_20h49.04.380,VisualSearchFaces,2024.2.4,Win32,58.82352941,,,,,,,,1313.2976,1313.3963,1313.3964,1315.3921,block4,f,1,0,9,9,29,1,0,bottom_right,neutral,no_target,0.7141,,,,,,,,,,,,,,,,,
,,,,,613484,m,y,r,n,12,0,2025-04-05_20h49.04.380,VisualSearchFaces,2024.2.4,Win32,58.82352941,,,,,,,,1316.3969,1316.5203,1316.5203,1318.5247,block4,j,1,0,10,10,16,1,1,top_left,threatening,neutral,0.5881,,,,,,,,,,,,,,,,,
,,,,,613484,m,y,r,n,12,0,2025-04-05_20h49.04.380,VisualSearchFaces,2024.2.4,Win32,58.82352941,,,,,,,,1319.5298,1319.6324,1319.6324,1321.6246,block4,j,1,0,11,11,18,1,1,bottom_left,threatening,neutral,1.1434,,,,,,,,,,,,,,,,,
,,,,,613484,m,y,r,n,12,0,2025-04-05_20h49.04.380,VisualSearchFaces,2024.2.4,Win32,58.82352941,,,,,,,,1322.629,1322.7255,1322.7255,1324.7243,block4,f,1,0,12,12,37,1,0,top_right,threatening,no_target,0.8351,,,,,,,,,,,,,,,,,
,,,,,613484,m,y,r,n,12,0,2025-04-05_20h49.04.380,VisualSearchFaces,2024.2.4,Win32,58.82352941,,,,,,,,1325.7283,1325.8479,1325.848,1327.8406,block4,j,1,0,13,13,14,1,1,bottom_right,friendly,neutral,0.5286,,,,,,,,,,,,,,,,,
,,,,,613484,m,y,r,n,12,0,2025-04-05_20h49.04.380,VisualSearchFaces,2024.2.4,Win32,58.82352941,,,,,,,,1328.8451,1328.9669,1328.967,1330.9571,block4,j,1,0,14,14,4,1,1,bottom_right,neutral,friendly,0.7225,,,,,,,,,,,,,,,,,
,,,,,613484,m,y,r,n,12,0,2025-04-05_20h49.04.380,VisualSearchFaces,2024.2.4,Win32,58.82352941,,,,,,,,1331.9611,1332.0733,1332.0734,1334.0729,block4,f,1,0,15,15,22,1,0,top_right,neutral,no_target,0.7844,,,,,,,,,,,,,,,,,
,,,,,613484,m,y,r,n,12,0,2025-04-05_20h49.04.380,VisualSearchFaces,2024.2.4,Win32,58.82352941,,,,,,,,1335.0778,1335.2076,1335.2076,1337.2062,block4,f,0,0,16,16,15,1,1,centre,threatening,neutral,1.334,,,,,,,,,,,,,,,,,
,,,,,613484,m,y,r,n,12,0,2025-04-05_20h49.04.380,VisualSearchFaces,2024.2.4,Win32,58.82352941,,,,,,,,1338.2106,1338.3289,1338.3291,1340.3221,block4,f,1,0,17,17,24,1,0,bottom_right,neutral,no_target,0.7135,,,,,,,,,,,,,,,,,
,,,,,613484,m,y,r,n,12,0,2025-04-05_20h49.04.380,VisualSearchFaces,2024.2.4,Win32,58.82352941,,,,,,,,1341.3272,1341.439,1341.439,1343.4383,block4,f,1,0,18,18,25,1,0,centre,neutral,no_target,0.6175,,,,,,,,,,,,,,,,,
,,,,,613484,m,y,r,n,12,0,2025-04-05_20h49.04.380,VisualSearchFaces,2024.2.4,Win32,58.82352941,,,,,,,,1344.443,1344.5599,1344.56,1346.555,block4,f,1,0,19,19,38,1,0,bottom_left,threatening,no_target,0.6446,,,,,,,,,,,,,,,,,
,,,,,613484,m,y,r,n,12,0,2025-04-05_20h49.04.380,VisualSearchFaces,2024.2.4,Win32,58.82352941,,,,,,,,1347.5589,1347.6716,1347.6716,1349.6713,block4,f,1,0,20,20,35,1,0,centre,threatening,no_target,0.6339,,,,,,,,,,,,,,,,,
,,,,,613484,m,y,r,n,12,0,2025-04-05_20h49.04.380,VisualSearchFaces,2024.2.4,Win32,58.82352941,,,,,,,,1350.6756,1350.8025,1350.8026,1352.8034,block4,f,1,0,21,21,33,1,0,bottom_left,friendly,no_target,0.6836,,,,,,,,,,,,,,,,,
,,,,,613484,m,y,r,n,12,0,2025-04-05_20h49.04.380,VisualSearchFaces,2024.2.4,Win32,58.82352941,,,,,,,,1353.809,1353.9208,1353.9208,1355.9205,block4,f,0,0,22,22,10,1,1,centre,friendly,neutral,0.6308,,,,,,,,,,,,,,,,,
,,,,,613484,m,y,r,n,12,0,2025-04-05_20h49.04.380,VisualSearchFaces,2024.2.4,Win32,58.82352941,,,,,,,,1356.9247,1357.0508,1357.0508,1359.0534,block4,j,1,0,23,23,5,1,1,centre,neutral,threatening,0.552,,,,,,,,,,,,,,,,,
,,,,,613484,m,y,r,n,12,0,2025-04-05_20h49.04.380,VisualSearchFaces,2024.2.4,Win32,58.82352941,,,,,,,,1360.0579,1360.1742,1360.1742,1362.1697,block4,,0,0,24,24,30,1,0,centre,friendly,no_target,,,,,,,,,,,,,,,,,,
,,,,,613484,m,y,r,n,12,0,2025-04-05_20h49.04.380,VisualSearchFaces,2024.2.4,Win32,58.82352941,,,,,,,,1363.1737,1363.2953,1363.2953,1365.2859,block4,j,1,0,25,25,2,1,1,top_right,neutral,friendly,0.6418,,,,,,,,,,,,,,,,,
,,,,,613484,m,y,r,n,12,0,2025-04-05_20h49.04.380,VisualSearchFaces,2024.2.4,Win32,58.82352941,,,,,,,,1366.2906,1366.4025,1366.4025,1368.4023,block4,f,0,0,26,26,1,1,1,top_left,neutral,friendly,0.8211,,,,,,,,,,,,,,,,,
,,,,,613484,m,y,r,n,12,0,2025-04-05_20h49.04.380,VisualSearchFaces,2024.2.4,Win32,58.82352941,,,,,,,,1369.4066,1369.5187,1369.5189,1371.5182,block4,f,1,0,27,27,28,1,0,bottom_left,neutral,no_target,0.7002,,,,,,,,,,,,,,,,,
,,,,,613484,m,y,r,n,12,0,2025-04-05_20h49.04.380,VisualSearchFaces,2024.2.4,Win32,58.82352941,,,,,,,,1372.5231,1372.6409,1372.6409,1374.6347,block4,j,1,0,28,28,19,1,1,bottom_right,threatening,neutral,0.6116,,,,,,,,,,,,,,,,,
,,,,,613484,m,y,r,n,12,0,2025-04-05_20h49.04.380,VisualSearchFaces,2024.2.4,Win32,58.82352941,,,,,,,,1375.64,1375.7655,1375.7656,1377.7676,block4,f,1,0,29,29,23,1,0,bottom_left,neutral,no_target,0.6186,,,,,,,,,,,,,,,,,
,,,,,613484,m,y,r,n,12,0,2025-04-05_20h49.04.380,VisualSearchFaces,2024.2.4,Win32,58.82352941,,,,,,,,1378.7725,1378.884,1378.8841,1380.884,block4,j,1,0,30,30,8,1,1,bottom_left,neutral,threatening,0.5007,,,,,,,,,,,,,,,,,
,,,,,613484,m,y,r,n,12,0,2025-04-05_20h49.04.380,VisualSearchFaces,2024.2.4,Win32,58.82352941,,,,,,,,1381.8886,1382.0019,1382.002,1384.0002,block4,f,1,0,31,31,20,1,0,centre,neutral,no_target,0.6658,,,,,,,,,,,,,,,,,
,,,,,613484,m,y,r,n,12,0,2025-04-05_20h49.04.380,VisualSearchFaces,2024.2.4,Win32,58.82352941,,,,,,,,1385.0051,1385.1166,1385.1167,1387.1165,block4,f,1,0,32,32,26,1,0,top_left,neutral,no_target,0.521,,,,,,,,,,,,,,,,,
,,,,,613484,m,y,r,n,12,0,2025-04-05_20h49.04.380,VisualSearchFaces,2024.2.4,Win32,58.82352941,,,,,,,,1388.1209,1388.2406,1388.2406,1390.233,block4,f,1,0,33,33,39,1,0,bottom_right,threatening,no_target,0.6602,,,,,,,,,,,,,,,,,
,,,,,613484,m,y,r,n,12,0,2025-04-05_20h49.04.380,VisualSearchFaces,2024.2.4,Win32,58.82352941,,,,,,,,1391.2376,1391.3494,1391.3496,1393.3495,block4,f,1,0,34,34,36,1,0,top_left,threatening,no_target,0.8344,,,,,,,,,,,,,,,,,
,,,,,613484,m,y,r,n,12,0,2025-04-05_20h49.04.380,VisualSearchFaces,2024.2.4,Win32,58.82352941,,,,,,,,1394.3538,1394.4796,1394.4798,1396.4822,block4,,0,0,35,35,12,1,1,top_right,friendly,neutral,,,,,,,,,,,,,,,,,,
,,,,,613484,m,y,r,n,12,0,2025-04-05_20h49.04.380,VisualSearchFaces,2024.2.4,Win32,58.82352941,,,,,,,,1397.4866,1397.5987,1397.5987,1399.5981,block4,f,1,0,36,36,34,1,0,bottom_right,friendly,no_target,0.6337,,,,,,,,,,,,,,,,,
,,,,,613484,m,y,r,n,12,0,2025-04-05_20h49.04.380,VisualSearchFaces,2024.2.4,Win32,58.82352941,,,,,,,,1400.603,1400.715,1400.715,1402.7148,block4,f,1,0,37,37,32,1,0,top_right,friendly,no_target,0.5008,,,,,,,,,,,,,,,,,
,,,,,613484,m,y,r,n,12,0,2025-04-05_20h49.04.380,VisualSearchFaces,2024.2.4,Win32,58.82352941,,,,,,,,1403.7194,1403.8432,1403.8433,1405.8309,block4,f,1,0,38,38,27,1,0,top_right,neutral,no_target,0.5053,,,,,,,,,,,,,,,,,
,,,,,613484,m,y,r,n,12,0,2025-04-05_20h49.04.380,VisualSearchFaces,2024.2.4,Win32,58.82352941,,,,,,,,1406.8358,1406.9473,1406.9473,1408.9473,block4,j,1,0,39,39,9,1,1,bottom_right,neutral,threatening,0.5344,,,,,,,,,,,,,,,,,
,,,,,613484,m,y,r,n,12,0,2025-04-05_20h49.04.380,VisualSearchFaces,2024.2.4,Win32,58.82352941,,,,,,,,1409.9525,1410.0637,1410.0638,1412.0637,block4,j,1,1,0,40,9,1,1,bottom_right,neutral,threatening,0.5054,,,,,,,,,,,,,,,,,
,,,,,613484,m,y,r,n,12,0,2025-04-05_20h49.04.380,VisualSearchFaces,2024.2.4,Win32,58.82352941,,,,,,,,1413.0686,1413.18,1413.1802,1415.1798,block4,j,1,1,1,41,3,1,1,bottom_left,neutral,friendly,0.7842,,,,,,,,,,,,,,,,,
,,,,,613484,m,y,r,n,12,0,2025-04-05_20h49.04.380,VisualSearchFaces,2024.2.4,Win32,58.82352941,,,,,,,,1416.1845,1416.3059,1416.306,1418.2961,block4,f,1,1,2,42,31,1,0,top_left,friendly,no_target,0.6233,,,,,,,,,,,,,,,,,
,,,,,613484,m,y,r,n,12,0,2025-04-05_20h49.04.380,VisualSearchFaces,2024.2.4,Win32,58.82352941,,,,,,,,1419.3008,1419.4167,1419.4169,1421.4124,block4,f,1,1,3,43,37,1,0,top_right,threatening,no_target,0.5617,,,,,,,,,,,,,,,,,
,,,,,613484,m,y,r,n,12,0,2025-04-05_20h49.04.380,VisualSearchFaces,2024.2.4,Win32,58.82352941,,,,,,,,1422.4182,1422.5391,1422.5392,1424.5288,block4,f,1,1,4,44,29,1,0,bottom_right,neutral,no_target,0.6409,,,,,,,,,,,,,,,,,
,,,,,613484,m,y,r,n,12,0,2025-04-05_20h49.04.380,VisualSearchFaces,2024.2.4,Win32,58.82352941,,,,,,,,1425.5332,1425.653,1425.653,1427.6447,block4,f,0,1,5,45,19,1,1,bottom_right,threatening,neutral,0.7788,,,,,,,,,,,,,,,,,
,,,,,613484,m,y,r,n,12,0,2025-04-05_20h49.04.380,VisualSearchFaces,2024.2.4,Win32,58.82352941,,,,,,,,1428.6496,1428.7618,1428.762,1430.7611,block4,f,1,1,6,46,36,1,0,top_left,threatening,no_target,0.7,,,,,,,,,,,,,,,,,
,,,,,613484,m,y,r,n,12,0,2025-04-05_20h49.04.380,VisualSearchFaces,2024.2.4,Win32,58.82352941,,,,,,,,1431.7665,1431.8908,1431.8909,1433.8942,block4,f,1,1,7,47,25,1,0,centre,neutral,no_target,0.5859,,,,,,,,,,,,,,,,,
,,,,,613484,m,y,r,n,12,0,2025-04-05_20h49.04.380,VisualSearchFaces,2024.2.4,Win32,58.82352941,,,,,,,,1434.899,1435.0177,1435.0178,1437.0104,block4,f,1,1,8,48,34,1,0,bottom_right,friendly,no_target,0.8419,,,,,,,,,,,,,,,,,
,,,,,613484,m,y,r,n,12,0,2025-04-05_20h49.04.380,VisualSearchFaces,2024.2.4,Win32,58.82352941,,,,,,,,1438.0151,1438.127,1438.1272,1440.1268,block4,f,1,1,9,49,32,1,0,top_right,friendly,no_target,1.4173,,,,,,,,,,,,,,,,,
,,,,,613484,m,y,r,n,12,0,2025-04-05_20h49.04.380,VisualSearchFaces,2024.2.4,Win32,58.82352941,,,,,,,,1441.1188,1441.2267,1441.2268,1443.226,block4,j,1,1,10,50,14,1,1,bottom_right,friendly,neutral,0.9514,,,,,,,,,,,,,,,,,
,,,,,613484,m,y,r,n,12,0,2025-04-05_20h49.04.380,VisualSearchFaces,2024.2.4,Win32,58.82352941,,,,,,,,1444.2311,1444.3529,1444.353,1446.3426,block4,j,1,1,11,51,8,1,1,bottom_left,neutral,threatening,1.0073,,,,,,,,,,,,,,,,,
,,,,,613484,m,y,r,n,12,0,2025-04-05_20h49.04.380,VisualSearchFaces,2024.2.4,Win32,58.82352941,,,,,,,,1447.3471,1447.459,1447.459,1449.4589,block4,j,1,1,12,52,5,1,1,centre,neutral,threatening,0.5676,,,,,,,,,,,,,,,,,
,,,,,613484,m,y,r,n,12,0,2025-04-05_20h49.04.380,VisualSearchFaces,2024.2.4,Win32,58.82352941,,,,,,,,1450.4629,1450.5916,1450.5916,1452.5923,block4,f,0,1,13,53,13,1,1,bottom_left,friendly,neutral,0.6681,,,,,,,,,,,,,,,,,
,,,,,613484,m,y,r,n,12,0,2025-04-05_20h49.04.380,VisualSearchFaces,2024.2.4,Win32,58.82352941,,,,,,,,1453.596,1453.7057,1453.7057,1455.7082,block4,j,1,1,14,54,18,1,1,bottom_left,threatening,neutral,1.2184,,,,,,,,,,,,,,,,,
,,,,,613484,m,y,r,n,12,0,2025-04-05_20h49.04.380,VisualSearchFaces,2024.2.4,Win32,58.82352941,,,,,,,,1456.7128,1456.822,1456.822,1458.8243,block4,j,1,1,15,55,11,1,1,top_left,friendly,neutral,1.1181,,,,,,,,,,,,,,,,,
,,,,,613484,m,y,r,n,12,0,2025-04-05_20h49.04.380,VisualSearchFaces,2024.2.4,Win32,58.82352941,,,,,,,,1459.8292,1459.9412,1459.9412,1461.9409,block4,j,1,1,16,56,10,1,1,centre,friendly,neutral,1.2018,,,,,,,,,,,,,,,,,
,,,,,613484,m,y,r,n,12,0,2025-04-05_20h49.04.380,VisualSearchFaces,2024.2.4,Win32,58.82352941,,,,,,,,1462.9448,1463.0698,1463.0699,1465.0738,block4,j,1,1,17,57,1,1,1,top_left,neutral,friendly,1.255,,,,,,,,,,,,,,,,,
,,,,,613484,m,y,r,n,12,0,2025-04-05_20h49.04.380,VisualSearchFaces,2024.2.4,Win32,58.82352941,,,,,,,,1466.078,1466.1902,1466.1903,1468.19,block4,f,1,1,18,58,27,1,0,top_right,neutral,no_target,0.5205,,,,,,,,,,,,,,,,,
,,,,,613484,m,y,r,n,12,0,2025-04-05_20h49.04.380,VisualSearchFaces,2024.2.4,Win32,58.82352941,,,,,,,,1469.1947,1469.3179,1469.3179,1471.3062,block4,f,1,1,19,59,39,1,0,bottom_right,threatening,no_target,0.7731,,,,,,,,,,,,,,,,,
,,,,,613484,m,y,r,n,12,0,2025-04-05_20h49.04.380,VisualSearchFaces,2024.2.4,Win32,58.82352941,,,,,,,,1472.3112,1472.4305,1472.4306,1474.4224,block4,f,1,1,20,60,21,1,0,top_left,neutral,no_target,0.7095,,,,,,,,,,,,,,,,,
,,,,,613484,m,y,r,n,12,0,2025-04-05_20h49.04.380,VisualSearchFaces,2024.2.4,Win32,58.82352941,,,,,,,,1475.4264,1475.5225,1475.5226,1477.5219,block4,j,1,1,21,61,7,1,1,top_right,neutral,threatening,0.667,,,,,,,,,,,,,,,,,
,,,,,613484,m,y,r,n,12,0,2025-04-05_20h49.04.380,VisualSearchFaces,2024.2.4,Win32,58.82352941,,,,,,,,1478.5259,1478.6289,1478.6289,1480.6218,block4,f,1,1,22,62,35,1,0,centre,threatening,no_target,0.7625,,,,,,,,,,,,,,,,,
,,,,,613484,m,y,r,n,12,0,2025-04-05_20h49.04.380,VisualSearchFaces,2024.2.4,Win32,58.82352941,,,,,,,,1481.6257,1481.7452,1481.7452,1483.738,block4,f,1,1,23,63,23,1,0,bottom_left,neutral,no_target,1.0438,,,,,,,,,,,,,,,,,
,,,,,613484,m,y,r,n,12,0,2025-04-05_20h49.04.380,VisualSearchFaces,2024.2.4,Win32,58.82352941,,,,,,,,1484.7435,1484.8736,1484.8737,1486.8713,block4,j,0,1,24,64,33,1,0,bottom_left,friendly,no_target,0.6661,,,,,,,,,,,,,,,,,
,,,,,613484,m,y,r,n,12,0,2025-04-05_20h49.04.380,VisualSearchFaces,2024.2.4,Win32,58.82352941,,,,,,,,1487.8753,1487.9973,1487.9973,1489.9873,block4,f,1,1,25,65,28,1,0,bottom_left,neutral,no_target,1.308,,,,,,,,,,,,,,,,,
,,,,,613484,m,y,r,n,12,0,2025-04-05_20h49.04.380,VisualSearchFaces,2024.2.4,Win32,58.82352941,,,,,,,,1490.9927,1491.1039,1491.104,1493.1034,block4,f,1,1,26,66,20,1,0,centre,neutral,no_target,0.8024,,,,,,,,,,,,,,,,,
,,,,,613484,m,y,r,n,12,0,2025-04-05_20h49.04.380,VisualSearchFaces,2024.2.4,Win32,58.82352941,,,,,,,,1494.1085,1494.2311,1494.2312,1496.2197,block4,f,0,1,27,67,12,1,1,top_right,friendly,neutral,0.8734,,,,,,,,,,,,,,,,,
,,,,,613484,m,y,r,n,12,0,2025-04-05_20h49.04.380,VisualSearchFaces,2024.2.4,Win32,58.82352941,,,,,,,,1497.2243,1497.3422,1497.3422,1499.3361,block4,j,0,1,28,68,38,1,0,bottom_left,threatening,no_target,0.7616,,,,,,,,,,,,,,,,,
,,,,,613484,m,y,r,n,12,0,2025-04-05_20h49.04.380,VisualSearchFaces,2024.2.4,Win32,58.82352941,,,,,,,,1500.3407,1500.4592,1500.4592,1502.4524,block4,j,1,1,29,69,4,1,1,bottom_right,neutral,friendly,0.8109,,,,,,,,,,,,,,,,,
,,,,,613484,m,y,r,n,12,0,2025-04-05_20h49.04.380,VisualSearchFaces,2024.2.4,Win32,58.82352941,,,,,,,,1503.457,1503.5522,1503.5523,1505.5519,block4,f,1,1,30,70,26,1,0,top_left,neutral,no_target,0.6387,,,,,,,,,,,,,,,,,
,,,,,613484,m,y,r,n,12,0,2025-04-05_20h49.04.380,VisualSearchFaces,2024.2.4,Win32,58.82352941,,,,,,,,1506.5568,1506.6533,1506.6535,1508.6516,block4,j,1,1,31,71,6,1,1,top_left,neutral,threatening,0.602,,,,,,,,,,,,,,,,,
,,,,,613484,m,y,r,n,12,0,2025-04-05_20h49.04.380,VisualSearchFaces,2024.2.4,Win32,58.82352941,,,,,,,,1509.6558,1509.7682,1509.7683,1511.7679,block4,j,1,1,32,72,0,1,1,centre,neutral,friendly,0.585,,,,,,,,,,,,,,,,,
,,,,,613484,m,y,r,n,12,0,2025-04-05_20h49.04.380,VisualSearchFaces,2024.2.4,Win32,58.82352941,,,,,,,,1512.7705,1512.8783,1512.8784,1514.8671,block4,f,0,1,33,73,15,1,1,centre,threatening,neutral,0.6601,,,,,,,,,,,,,,,,,
,,,,,613484,m,y,r,n,12,0,2025-04-05_20h49.04.380,VisualSearchFaces,2024.2.4,Win32,58.82352941,,,,,,,,1515.8731,1515.998,1515.998,1518.0006,block4,j,0,1,34,74,22,1,0,top_right,neutral,no_target,0.8076,,,,,,,,,,,,,,,,,
,,,,,613484,m,y,r,n,12,0,2025-04-05_20h49.04.380,VisualSearchFaces,2024.2.4,Win32,58.82352941,,,,,,,,1519.0051,1519.1281,1519.1282,1521.1169,block4,j,1,1,35,75,17,1,1,top_right,threatening,neutral,0.772,,,,,,,,,,,,,,,,,
,,,,,613484,m,y,r,n,12,0,2025-04-05_20h49.04.380,VisualSearchFaces,2024.2.4,Win32,58.82352941,,,,,,,,1522.1214,1522.2421,1522.2421,1524.233,block4,j,0,1,36,76,24,1,0,bottom_right,neutral,no_target,0.8427,,,,,,,,,,,,,,,,,
,,,,,613484,m,y,r,n,12,0,2025-04-05_20h49.04.380,VisualSearchFaces,2024.2.4,Win32,58.82352941,,,,,,,,1525.2385,1525.3516,1525.3518,1527.3495,block4,j,1,1,37,77,2,1,1,top_right,neutral,friendly,0.8824,,,,,,,,,,,,,,,,,
,,,,,613484,m,y,r,n,12,0,2025-04-05_20h49.04.380,VisualSearchFaces,2024.2.4,Win32,58.82352941,,,,,,,,1528.3541,1528.4805,1528.4805,1530.4822,block4,f,1,1,38,78,30,1,0,centre,friendly,no_target,0.9198,,,,,,,,,,,,,,,,,
,,,,,613484,m,y,r,n,12,0,2025-04-05_20h49.04.380,VisualSearchFaces,2024.2.4,Win32,58.82352941,,,,,,,,1531.487,1531.6028,1531.6029,1533.5987,block4,j,1,1,39,79,16,1,1,top_left,threatening,neutral,0.7288,,,,,,,,,,,,,,,,,
,,,,,613484,m,y,r,n,12,0,2025-04-05_20h49.04.380,VisualSearchFaces,2024.2.4,Win32,58.82352941,,,,,,,,,,,,,,,,,,,,,,,,,,1533.6023,1541.1977,space,7.5667,,1541.2004,1573.1604,"It were basic 'smileys', with neutral, anger and happy faces. ",1,[1573.1593000000119],[1573.1593000000119],,,,,
,,,,,613484,m,y,r,n,12,0,2025-04-05_20h49.04.380,VisualSearchFaces,2024.2.4,Win32,58.82352941,,,,,,,,,,,,,,,,,,,,,,,,,,,,,,,,,,,,,1573.1664,1575.1611,space,1.9688,
