Welcome.started,Welcome.stopped,keyboard_space_welcome.keys,keyboard_space_welcome.rt,keyboard_space_welcome.duration,participant,gender,(corrected) normal vision,handedness,exp vse,session,skip_intro,date,expName,psychopyVersion,OS,frameRate,stimulus_exposure.started,stimulus_exposure.stopped,Block_intro.started,Block_intro.stopped,keyboard_space.keys,keyboard_space.rt,keyboard_space.duration,Stimulus.started,Stimulus.stopped,fixation_ending.started,fixation_ending.stopped,block_id,keyboard_response.keys,keyboard_response.corr,trials.thisRepN,trials.thisTrialN,trials.thisN,trials.thisIndex,trials.ran,target_presence,target_position,background_emotion,target_emotion,keyboard_response.rt,keyboard_response.duration,Block_outro.started,Block_outro.stopped,keyboard_space_end.keys,keyboard_space_end.rt,keyboard_space_end.duration,Question_about_stimulus.started,Question_about_stimulus.stopped,textbox_response.text,button.numClicks,button.timesOn,button.timesOff,Thanks.started,Thanks.stopped,keyboard_space_goodbye.keys,keyboard_space_goodbye.rt,keyboard_space_goodbye.duration
0.0005,155.2556,space,155.2283,,628441,f,y,r,y,11,0,2025-04-05_16h09.02.936,VisualSearchFaces,2024.2.4,Win32,59.88023952,,,,,,,,,,,,,,,,,,,,,,,,,,,,,,,,,,,,,,,,,
,,,,,628441,f,y,r,y,11,0,2025-04-05_16h09.02.936,VisualSearchFaces,2024.2.4,Win32,59.88023952,176.4075,179.4178,179.4308,227.9622,space,48.5005,,228.9679,229.2283,229.2285,231.229,practice1,,0,0,0,0,12,1,1,top_right,friendly,neutral,,,,,,,,,,,,,,,,,,
,,,,,628441,f,y,r,y,11,0,2025-04-05_16h09.02.936,VisualSearchFaces,2024.2.4,Win32,59.88023952,,,,,,,,232.2325,232.4947,232.4948,234.4946,practice1,j,0,0,1,1,35,1,0,centre,threatening,no_target,0.9503,,,,,,,,,,,,,,,,,
,,,,,628441,f,y,r,y,11,0,2025-04-05_16h09.02.936,VisualSearchFaces,2024.2.4,Win32,59.88023952,,,,,,,,235.499,235.7607,235.7608,237.7607,practice1,j,1,0,2,2,18,1,1,bottom_left,threatening,neutral,0.6675,,,,,,,,,,,,,,,,,
,,,,,628441,f,y,r,y,11,0,2025-04-05_16h09.02.936,VisualSearchFaces,2024.2.4,Win32,59.88023952,,,,,,,,238.765,239.027,239.0271,241.0266,practice1,f,1,0,3,3,39,1,0,bottom_right,threatening,no_target,0.6344,,,,,,,,,,,,,,,,,
,,,,,628441,f,y,r,y,11,0,2025-04-05_16h09.02.936,VisualSearchFaces,2024.2.4,Win32,59.88023952,,,,,,,,242.0319,242.2933,242.2935,244.2925,practice1,j,1,0,4,4,11,1,1,top_left,friendly,neutral,0.8662,,,,,,,,,,,,,,,,,
,,,,,628441,f,y,r,y,11,0,2025-04-05_16h09.02.936,VisualSearchFaces,2024.2.4,Win32,59.88023952,,,,,,,,245.2947,245.5713,245.5714,247.5591,practice1,f,1,0,5,5,28,1,0,bottom_left,neutral,no_target,0.6727,,,,,,,,,,,,,,,,,
,,,,,628441,f,y,r,y,11,0,2025-04-05_16h09.02.936,VisualSearchFaces,2024.2.4,Win32,59.88023952,,,,,,,,248.5787,248.8422,248.8422,250.8421,practice1,j,0,0,6,6,34,1,0,bottom_right,friendly,no_target,0.7006,,,,,,,,,,,,,,,,,
,,,,,628441,f,y,r,y,11,0,2025-04-05_16h09.02.936,VisualSearchFaces,2024.2.4,Win32,59.88023952,,,,,,,,251.8454,252.1088,252.1088,254.1082,practice1,j,1,0,7,7,5,1,1,centre,neutral,threatening,0.9828,,,,,,,,,,,,,,,,,
,,,,,628441,f,y,r,y,11,0,2025-04-05_16h09.02.936,VisualSearchFaces,2024.2.4,Win32,59.88023952,,,,,,,,255.1103,255.3745,255.3746,257.3749,practice1,f,0,0,8,8,17,1,1,top_right,threatening,neutral,0.6162,,,,,,,,,,,,,,,,,
,,,,,628441,f,y,r,y,11,0,2025-04-05_16h09.02.936,VisualSearchFaces,2024.2.4,Win32,59.88023952,,,,,,,,258.38,258.6255,258.6255,260.6245,practice1,j,1,0,9,9,10,1,1,centre,friendly,neutral,0.5319,,,,,,,,,,,,,,,,,
,,,,,628441,f,y,r,y,11,0,2025-04-05_16h09.02.936,VisualSearchFaces,2024.2.4,Win32,59.88023952,,,,,,,,261.6294,261.891,261.8911,263.8907,practice1,f,1,0,10,10,26,1,0,top_left,neutral,no_target,0.3694,,,,,,,,,,,,,,,,,
,,,,,628441,f,y,r,y,11,0,2025-04-05_16h09.02.936,VisualSearchFaces,2024.2.4,Win32,59.88023952,,,,,,,,264.8961,265.1573,265.1574,267.1568,practice1,f,1,0,11,11,33,1,0,bottom_left,friendly,no_target,0.8843,,,,,,,,,,,,,,,,,
,,,,,628441,f,y,r,y,11,0,2025-04-05_16h09.02.936,VisualSearchFaces,2024.2.4,Win32,59.88023952,,,,,,,,268.1623,268.4234,268.4235,270.4233,practice1,f,1,0,12,12,25,1,0,centre,neutral,no_target,0.4505,,,,,,,,,,,,,,,,,
,,,,,628441,f,y,r,y,11,0,2025-04-05_16h09.02.936,VisualSearchFaces,2024.2.4,Win32,59.88023952,,,,,,,,271.4285,271.6897,271.6898,273.6895,practice1,j,1,0,13,13,1,1,1,top_left,neutral,friendly,0.3881,,,,,,,,,,,,,,,,,
,,,,,628441,f,y,r,y,11,0,2025-04-05_16h09.02.936,VisualSearchFaces,2024.2.4,Win32,59.88023952,,,,,,,,274.694,274.9396,274.9398,276.939,practice1,f,1,0,14,14,36,1,0,top_left,threatening,no_target,0.7,,,,,,,,,,,,,,,,,
,,,,,628441,f,y,r,y,11,0,2025-04-05_16h09.02.936,VisualSearchFaces,2024.2.4,Win32,59.88023952,,,,,,,,277.9417,278.2058,278.2059,280.2052,practice1,f,1,0,15,15,37,1,0,top_right,threatening,no_target,0.5665,,,,,,,,,,,,,,,,,
,,,,,628441,f,y,r,y,11,0,2025-04-05_16h09.02.936,VisualSearchFaces,2024.2.4,Win32,59.88023952,,,,,,,,281.2103,281.4717,281.4718,283.4719,practice1,f,1,0,16,16,22,1,0,top_right,neutral,no_target,0.3833,,,,,,,,,,,,,,,,,
,,,,,628441,f,y,r,y,11,0,2025-04-05_16h09.02.936,VisualSearchFaces,2024.2.4,Win32,59.88023952,,,,,,,,284.4776,284.7383,284.7384,286.7378,practice1,j,1,0,17,17,6,1,1,top_left,neutral,threatening,0.3182,,,,,,,,,,,,,,,,,
,,,,,628441,f,y,r,y,11,0,2025-04-05_16h09.02.936,VisualSearchFaces,2024.2.4,Win32,59.88023952,,,,,,,,287.7423,288.0044,288.0045,290.0042,practice1,j,1,0,18,18,19,1,1,bottom_right,threatening,neutral,0.4174,,,,,,,,,,,,,,,,,
,,,,,628441,f,y,r,y,11,0,2025-04-05_16h09.02.936,VisualSearchFaces,2024.2.4,Win32,59.88023952,,,,,,,,291.0052,291.2541,291.2542,293.2538,practice1,f,0,0,19,19,13,1,1,bottom_left,friendly,neutral,0.4546,,,,,,,,,,,,,,,,,
,,,,,628441,f,y,r,y,11,0,2025-04-05_16h09.02.936,VisualSearchFaces,2024.2.4,Win32,59.88023952,,,,,,,,294.2587,294.5201,294.5201,296.5198,practice1,f,1,0,20,20,21,1,0,top_left,neutral,no_target,1.2686,,,,,,,,,,,,,,,,,
,,,,,628441,f,y,r,y,11,0,2025-04-05_16h09.02.936,VisualSearchFaces,2024.2.4,Win32,59.88023952,,,,,,,,297.5239,297.7867,297.7868,299.7863,practice1,f,1,0,21,21,32,1,0,top_right,friendly,no_target,0.4325,,,,,,,,,,,,,,,,,
,,,,,628441,f,y,r,y,11,0,2025-04-05_16h09.02.936,VisualSearchFaces,2024.2.4,Win32,59.88023952,,,,,,,,300.7884,301.0364,301.0364,303.0359,practice1,f,1,0,22,22,30,1,0,centre,friendly,no_target,0.7196,,,,,,,,,,,,,,,,,
,,,,,628441,f,y,r,y,11,0,2025-04-05_16h09.02.936,VisualSearchFaces,2024.2.4,Win32,59.88023952,,,,,,,,304.0416,304.2858,304.2859,306.2854,practice1,j,1,0,23,23,4,1,1,bottom_right,neutral,friendly,0.2839,,,,,,,,,,,,,,,,,
,,,,,628441,f,y,r,y,11,0,2025-04-05_16h09.02.936,VisualSearchFaces,2024.2.4,Win32,59.88023952,,,,,,,,307.2908,307.5519,307.552,309.5518,practice1,f,1,0,24,24,31,1,0,top_left,friendly,no_target,0.4863,,,,,,,,,,,,,,,,,
,,,,,628441,f,y,r,y,11,0,2025-04-05_16h09.02.936,VisualSearchFaces,2024.2.4,Win32,59.88023952,,,,,,,,310.557,310.8182,310.8183,312.8182,practice1,j,1,0,25,25,0,1,1,centre,neutral,friendly,0.4329,,,,,,,,,,,,,,,,,
,,,,,628441,f,y,r,y,11,0,2025-04-05_16h09.02.936,VisualSearchFaces,2024.2.4,Win32,59.88023952,,,,,,,,313.8227,314.0847,314.0847,316.0843,practice1,f,0,0,26,26,8,1,1,bottom_left,neutral,threatening,0.3172,,,,,,,,,,,,,,,,,
,,,,,628441,f,y,r,y,11,0,2025-04-05_16h09.02.936,VisualSearchFaces,2024.2.4,Win32,59.88023952,,,,,,,,317.0896,317.351,317.351,319.3498,practice1,j,1,0,27,27,9,1,1,bottom_right,neutral,threatening,0.2833,,,,,,,,,,,,,,,,,
,,,,,628441,f,y,r,y,11,0,2025-04-05_16h09.02.936,VisualSearchFaces,2024.2.4,Win32,59.88023952,,,,,,,,320.3559,320.6164,320.6165,322.6166,practice1,f,1,0,28,28,24,1,0,bottom_right,neutral,no_target,0.4829,,,,,,,,,,,,,,,,,
,,,,,628441,f,y,r,y,11,0,2025-04-05_16h09.02.936,VisualSearchFaces,2024.2.4,Win32,59.88023952,,,,,,,,323.6225,323.8835,323.8835,325.883,practice1,j,0,0,29,29,38,1,0,bottom_left,threatening,no_target,0.2855,,,,,,,,,,,,,,,,,
,,,,,628441,f,y,r,y,11,0,2025-04-05_16h09.02.936,VisualSearchFaces,2024.2.4,Win32,59.88023952,,,,,,,,326.885,327.1493,327.1494,329.1489,practice1,j,1,0,30,30,14,1,1,bottom_right,friendly,neutral,0.5498,,,,,,,,,,,,,,,,,
,,,,,628441,f,y,r,y,11,0,2025-04-05_16h09.02.936,VisualSearchFaces,2024.2.4,Win32,59.88023952,,,,,,,,330.1523,330.4159,330.4159,332.4157,practice1,j,1,0,31,31,7,1,1,top_right,neutral,threatening,0.4385,,,,,,,,,,,,,,,,,
,,,,,628441,f,y,r,y,11,0,2025-04-05_16h09.02.936,VisualSearchFaces,2024.2.4,Win32,59.88023952,,,,,,,,333.4208,333.6817,333.6818,335.6819,practice1,f,1,0,32,32,29,1,0,bottom_right,neutral,no_target,0.3022,,,,,,,,,,,,,,,,,
,,,,,628441,f,y,r,y,11,0,2025-04-05_16h09.02.936,VisualSearchFaces,2024.2.4,Win32,59.88023952,,,,,,,,336.6865,336.9511,336.9512,338.9482,practice1,f,1,0,33,33,23,1,0,bottom_left,neutral,no_target,0.3324,,,,,,,,,,,,,,,,,
,,,,,628441,f,y,r,y,11,0,2025-04-05_16h09.02.936,VisualSearchFaces,2024.2.4,Win32,59.88023952,,,,,,,,339.9533,340.2143,340.2144,342.2144,practice1,f,0,0,34,34,15,1,1,centre,threatening,neutral,0.2835,,,,,,,,,,,,,,,,,
,,,,,628441,f,y,r,y,11,0,2025-04-05_16h09.02.936,VisualSearchFaces,2024.2.4,Win32,59.88023952,,,,,,,,343.2198,343.4807,343.4807,345.4808,practice1,f,0,0,35,35,3,1,1,bottom_left,neutral,friendly,0.5351,,,,,,,,,,,,,,,,,
,,,,,628441,f,y,r,y,11,0,2025-04-05_16h09.02.936,VisualSearchFaces,2024.2.4,Win32,59.88023952,,,,,,,,346.4819,346.7302,346.7303,348.7299,practice1,f,0,0,36,36,2,1,1,top_right,neutral,friendly,0.5546,,,,,,,,,,,,,,,,,
,,,,,628441,f,y,r,y,11,0,2025-04-05_16h09.02.936,VisualSearchFaces,2024.2.4,Win32,59.88023952,,,,,,,,349.7313,349.9803,349.9804,351.9799,practice1,j,1,0,37,37,16,1,1,top_left,threatening,neutral,0.5505,,,,,,,,,,,,,,,,,
,,,,,628441,f,y,r,y,11,0,2025-04-05_16h09.02.936,VisualSearchFaces,2024.2.4,Win32,59.88023952,,,,,,,,352.9848,353.2462,353.2462,355.2455,practice1,f,1,0,38,38,27,1,0,top_right,neutral,no_target,0.5838,,,,,,,,,,,,,,,,,
,,,,,628441,f,y,r,y,11,0,2025-04-05_16h09.02.936,VisualSearchFaces,2024.2.4,Win32,59.88023952,,,,,,,,356.2513,356.4971,356.4971,358.4957,practice1,f,1,0,39,39,20,1,0,centre,neutral,no_target,0.3529,,,,,,,,,,,,,,,,,
,,,,,628441,f,y,r,y,11,0,2025-04-05_16h09.02.936,VisualSearchFaces,2024.2.4,Win32,59.88023952,,,371.5378,392.4586,space,20.8906,,393.4633,393.5749,393.575,395.5746,practice2,,0,0,0,0,23,1,0,bottom_left,neutral,no_target,,,358.4965,371.5281,space,12.9998,,,,,,,,,,,,
,,,,,628441,f,y,r,y,11,0,2025-04-05_16h09.02.936,VisualSearchFaces,2024.2.4,Win32,59.88023952,,,,,,,,396.5798,396.6908,396.6908,398.6907,practice2,f,1,0,1,1,36,1,0,top_left,threatening,no_target,0.7513,,,,,,,,,,,,,,,,,
,,,,,628441,f,y,r,y,11,0,2025-04-05_16h09.02.936,VisualSearchFaces,2024.2.4,Win32,59.88023952,,,,,,,,399.6969,399.8066,399.8067,401.8073,practice2,j,1,0,2,2,3,1,1,bottom_left,neutral,friendly,0.7007,,,,,,,,,,,,,,,,,
,,,,,628441,f,y,r,y,11,0,2025-04-05_16h09.02.936,VisualSearchFaces,2024.2.4,Win32,59.88023952,,,,,,,,402.8099,402.9237,402.9238,404.9226,practice2,f,1,0,3,3,22,1,0,top_right,neutral,no_target,0.4842,,,,,,,,,,,,,,,,,
,,,,,628441,f,y,r,y,11,0,2025-04-05_16h09.02.936,VisualSearchFaces,2024.2.4,Win32,59.88023952,,,,,,,,405.929,406.0394,406.0395,408.0393,practice2,j,1,0,4,4,2,1,1,top_right,neutral,friendly,0.735,,,,,,,,,,,,,,,,,
,,,,,628441,f,y,r,y,11,0,2025-04-05_16h09.02.936,VisualSearchFaces,2024.2.4,Win32,59.88023952,,,,,,,,409.0423,409.1557,409.1557,411.1557,practice2,f,1,0,5,5,24,1,0,bottom_right,neutral,no_target,0.5192,,,,,,,,,,,,,,,,,
,,,,,628441,f,y,r,y,11,0,2025-04-05_16h09.02.936,VisualSearchFaces,2024.2.4,Win32,59.88023952,,,,,,,,412.1608,412.2728,412.2729,414.2723,practice2,f,1,0,6,6,29,1,0,bottom_right,neutral,no_target,0.5329,,,,,,,,,,,,,,,,,
,,,,,628441,f,y,r,y,11,0,2025-04-05_16h09.02.936,VisualSearchFaces,2024.2.4,Win32,59.88023952,,,,,,,,415.2766,415.3882,415.3882,417.3884,practice2,j,0,0,7,7,34,1,0,bottom_right,friendly,no_target,0.7671,,,,,,,,,,,,,,,,,
,,,,,628441,f,y,r,y,11,0,2025-04-05_16h09.02.936,VisualSearchFaces,2024.2.4,Win32,59.88023952,,,,,,,,418.3934,418.5053,418.5054,420.5049,practice2,f,1,0,8,8,33,1,0,bottom_left,friendly,no_target,0.6503,,,,,,,,,,,,,,,,,
,,,,,628441,f,y,r,y,11,0,2025-04-05_16h09.02.936,VisualSearchFaces,2024.2.4,Win32,59.88023952,,,,,,,,421.5094,421.6214,421.6215,423.621,practice2,f,1,0,9,9,32,1,0,top_right,friendly,no_target,0.5841,,,,,,,,,,,,,,,,,
,,,,,628441,f,y,r,y,11,0,2025-04-05_16h09.02.936,VisualSearchFaces,2024.2.4,Win32,59.88023952,,,,,,,,424.6265,424.7372,424.7372,426.737,practice2,j,1,0,10,10,18,1,1,bottom_left,threatening,neutral,0.6178,,,,,,,,,,,,,,,,,
,,,,,628441,f,y,r,y,11,0,2025-04-05_16h09.02.936,VisualSearchFaces,2024.2.4,Win32,59.88023952,,,,,,,,427.7414,427.8535,427.8535,429.8537,practice2,j,1,0,11,11,5,1,1,centre,neutral,threatening,0.5691,,,,,,,,,,,,,,,,,
,,,,,628441,f,y,r,y,11,0,2025-04-05_16h09.02.936,VisualSearchFaces,2024.2.4,Win32,59.88023952,,,,,,,,430.8581,430.9536,430.9536,432.9534,practice2,j,1,0,12,12,0,1,1,centre,neutral,friendly,0.4838,,,,,,,,,,,,,,,,,
,,,,,628441,f,y,r,y,11,0,2025-04-05_16h09.02.936,VisualSearchFaces,2024.2.4,Win32,59.88023952,,,,,,,,433.9583,434.0693,434.0694,436.0692,practice2,j,1,0,13,13,12,1,1,top_right,friendly,neutral,0.716,,,,,,,,,,,,,,,,,
,,,,,628441,f,y,r,y,11,0,2025-04-05_16h09.02.936,VisualSearchFaces,2024.2.4,Win32,59.88023952,,,,,,,,437.0748,437.1858,437.1858,439.186,practice2,j,1,0,14,14,17,1,1,top_right,threatening,neutral,0.568,,,,,,,,,,,,,,,,,
,,,,,628441,f,y,r,y,11,0,2025-04-05_16h09.02.936,VisualSearchFaces,2024.2.4,Win32,59.88023952,,,,,,,,440.1909,440.302,440.302,442.3022,practice2,j,1,0,15,15,6,1,1,top_left,neutral,threatening,0.6845,,,,,,,,,,,,,,,,,
,,,,,628441,f,y,r,y,11,0,2025-04-05_16h09.02.936,VisualSearchFaces,2024.2.4,Win32,59.88023952,,,,,,,,443.307,443.4183,443.4183,445.418,practice2,j,1,0,16,16,11,1,1,top_left,friendly,neutral,1.2193,,,,,,,,,,,,,,,,,
,,,,,628441,f,y,r,y,11,0,2025-04-05_16h09.02.936,VisualSearchFaces,2024.2.4,Win32,59.88023952,,,,,,,,446.4232,446.5347,446.5347,448.5348,practice2,f,1,0,17,17,25,1,0,centre,neutral,no_target,0.5714,,,,,,,,,,,,,,,,,
,,,,,628441,f,y,r,y,11,0,2025-04-05_16h09.02.936,VisualSearchFaces,2024.2.4,Win32,59.88023952,,,,,,,,449.5395,449.6508,449.6508,451.6508,practice2,f,0,0,18,18,10,1,1,centre,friendly,neutral,0.8516,,,,,,,,,,,,,,,,,
,,,,,628441,f,y,r,y,11,0,2025-04-05_16h09.02.936,VisualSearchFaces,2024.2.4,Win32,59.88023952,,,,,,,,452.656,452.7671,452.7672,454.7671,practice2,f,1,0,19,19,38,1,0,bottom_left,threatening,no_target,0.5678,,,,,,,,,,,,,,,,,
,,,,,628441,f,y,r,y,11,0,2025-04-05_16h09.02.936,VisualSearchFaces,2024.2.4,Win32,59.88023952,,,,,,,,455.7712,455.8834,455.8834,457.8837,practice2,f,1,0,20,20,21,1,0,top_left,neutral,no_target,0.5846,,,,,,,,,,,,,,,,,
,,,,,628441,f,y,r,y,11,0,2025-04-05_16h09.02.936,VisualSearchFaces,2024.2.4,Win32,59.88023952,,,,,,,,458.8881,458.9997,458.9997,460.9992,practice2,f,1,0,21,21,37,1,0,top_right,threatening,no_target,0.5186,,,,,,,,,,,,,,,,,
,,,,,628441,f,y,r,y,11,0,2025-04-05_16h09.02.936,VisualSearchFaces,2024.2.4,Win32,59.88023952,,,,,,,,462.0041,462.1162,462.1162,464.116,practice2,f,1,0,22,22,39,1,0,bottom_right,threatening,no_target,0.5842,,,,,,,,,,,,,,,,,
,,,,,628441,f,y,r,y,11,0,2025-04-05_16h09.02.936,VisualSearchFaces,2024.2.4,Win32,59.88023952,,,,,,,,465.1186,465.232,465.2321,467.2323,practice2,f,1,0,23,23,35,1,0,centre,threatening,no_target,0.6014,,,,,,,,,,,,,,,,,
,,,,,628441,f,y,r,y,11,0,2025-04-05_16h09.02.936,VisualSearchFaces,2024.2.4,Win32,59.88023952,,,,,,,,468.239,468.3421,468.3421,470.3313,practice2,j,1,0,24,24,9,1,1,bottom_right,neutral,threatening,0.5766,,,,,,,,,,,,,,,,,
,,,,,628441,f,y,r,y,11,0,2025-04-05_16h09.02.936,VisualSearchFaces,2024.2.4,Win32,59.88023952,,,,,,,,471.333,471.4321,471.4322,473.4318,practice2,j,1,0,25,25,15,1,1,centre,threatening,neutral,0.6161,,,,,,,,,,,,,,,,,
,,,,,628441,f,y,r,y,11,0,2025-04-05_16h09.02.936,VisualSearchFaces,2024.2.4,Win32,59.88023952,,,,,,,,474.4393,474.5319,474.532,476.5313,practice2,f,0,0,26,26,13,1,1,bottom_left,friendly,neutral,0.7041,,,,,,,,,,,,,,,,,
,,,,,628441,f,y,r,y,11,0,2025-04-05_16h09.02.936,VisualSearchFaces,2024.2.4,Win32,59.88023952,,,,,,,,477.5355,477.6474,477.6475,479.647,practice2,j,1,0,27,27,8,1,1,bottom_left,neutral,threatening,0.6045,,,,,,,,,,,,,,,,,
,,,,,628441,f,y,r,y,11,0,2025-04-05_16h09.02.936,VisualSearchFaces,2024.2.4,Win32,59.88023952,,,,,,,,480.6511,480.7638,480.7638,482.7637,practice2,f,1,0,28,28,26,1,0,top_left,neutral,no_target,0.6355,,,,,,,,,,,,,,,,,
,,,,,628441,f,y,r,y,11,0,2025-04-05_16h09.02.936,VisualSearchFaces,2024.2.4,Win32,59.88023952,,,,,,,,483.7649,483.8633,483.8633,485.8634,practice2,j,1,0,29,29,4,1,1,bottom_right,neutral,friendly,0.5355,,,,,,,,,,,,,,,,,
,,,,,628441,f,y,r,y,11,0,2025-04-05_16h09.02.936,VisualSearchFaces,2024.2.4,Win32,59.88023952,,,,,,,,486.869,486.9795,486.9796,488.9794,practice2,j,0,0,30,30,30,1,0,centre,friendly,no_target,0.6038,,,,,,,,,,,,,,,,,
,,,,,628441,f,y,r,y,11,0,2025-04-05_16h09.02.936,VisualSearchFaces,2024.2.4,Win32,59.88023952,,,,,,,,489.9849,490.0957,490.0957,492.0961,practice2,j,1,0,31,31,14,1,1,bottom_right,friendly,neutral,0.6027,,,,,,,,,,,,,,,,,
,,,,,628441,f,y,r,y,11,0,2025-04-05_16h09.02.936,VisualSearchFaces,2024.2.4,Win32,59.88023952,,,,,,,,493.1008,493.2124,493.2125,495.2126,practice2,f,1,0,32,32,31,1,0,top_left,friendly,no_target,0.6848,,,,,,,,,,,,,,,,,
,,,,,628441,f,y,r,y,11,0,2025-04-05_16h09.02.936,VisualSearchFaces,2024.2.4,Win32,59.88023952,,,,,,,,496.2173,496.3281,496.3281,498.3283,practice2,j,0,0,33,33,28,1,0,bottom_left,neutral,no_target,1.1523,,,,,,,,,,,,,,,,,
,,,,,628441,f,y,r,y,11,0,2025-04-05_16h09.02.936,VisualSearchFaces,2024.2.4,Win32,59.88023952,,,,,,,,499.3311,499.4285,499.4285,501.4282,practice2,f,1,0,34,34,27,1,0,top_right,neutral,no_target,0.6341,,,,,,,,,,,,,,,,,
,,,,,628441,f,y,r,y,11,0,2025-04-05_16h09.02.936,VisualSearchFaces,2024.2.4,Win32,59.88023952,,,,,,,,502.433,502.5444,502.5444,504.5446,practice2,j,1,0,35,35,19,1,1,bottom_right,threatening,neutral,0.5864,,,,,,,,,,,,,,,,,
,,,,,628441,f,y,r,y,11,0,2025-04-05_16h09.02.936,VisualSearchFaces,2024.2.4,Win32,59.88023952,,,,,,,,505.5491,505.6606,505.6606,507.6607,practice2,j,1,0,36,36,7,1,1,top_right,neutral,threatening,0.5208,,,,,,,,,,,,,,,,,
,,,,,628441,f,y,r,y,11,0,2025-04-05_16h09.02.936,VisualSearchFaces,2024.2.4,Win32,59.88023952,,,,,,,,508.6656,508.7774,508.7774,510.7769,practice2,j,1,0,37,37,1,1,1,top_left,neutral,friendly,0.6489,,,,,,,,,,,,,,,,,
,,,,,628441,f,y,r,y,11,0,2025-04-05_16h09.02.936,VisualSearchFaces,2024.2.4,Win32,59.88023952,,,,,,,,511.782,511.8932,511.8932,513.8936,practice2,j,1,0,38,38,16,1,1,top_left,threatening,neutral,0.6195,,,,,,,,,,,,,,,,,
,,,,,628441,f,y,r,y,11,0,2025-04-05_16h09.02.936,VisualSearchFaces,2024.2.4,Win32,59.88023952,,,,,,,,514.8979,515.0095,515.0096,517.0096,practice2,f,1,0,39,39,20,1,0,centre,neutral,no_target,0.8214,,,,,,,,,,,,,,,,,
,,,,,628441,f,y,r,y,11,0,2025-04-05_16h09.02.936,VisualSearchFaces,2024.2.4,Win32,59.88023952,,,618.8223,621.4132,space,2.556,,622.4181,622.5296,622.5296,624.5297,block1,f,1,0,0,0,27,1,0,top_right,neutral,no_target,0.6355,,517.0142,618.8138,space,101.7715,,,,,,,,,,,,
,,,,,628441,f,y,r,y,11,0,2025-04-05_16h09.02.936,VisualSearchFaces,2024.2.4,Win32,59.88023952,,,,,,,,625.5342,625.646,625.646,627.6457,block1,f,1,0,1,1,38,1,0,bottom_left,threatening,no_target,0.8023,,,,,,,,,,,,,,,,,
,,,,,628441,f,y,r,y,11,0,2025-04-05_16h09.02.936,VisualSearchFaces,2024.2.4,Win32,59.88023952,,,,,,,,628.6506,628.7623,628.7623,630.7623,block1,j,1,0,2,2,6,1,1,top_left,neutral,threatening,0.6182,,,,,,,,,,,,,,,,,
,,,,,628441,f,y,r,y,11,0,2025-04-05_16h09.02.936,VisualSearchFaces,2024.2.4,Win32,59.88023952,,,,,,,,631.7667,631.8788,631.8788,633.8784,block1,f,1,0,3,3,22,1,0,top_right,neutral,no_target,0.484,,,,,,,,,,,,,,,,,
,,,,,628441,f,y,r,y,11,0,2025-04-05_16h09.02.936,VisualSearchFaces,2024.2.4,Win32,59.88023952,,,,,,,,634.8831,634.9952,634.9953,636.9949,block1,j,1,0,4,4,4,1,1,bottom_right,neutral,friendly,0.4858,,,,,,,,,,,,,,,,,
,,,,,628441,f,y,r,y,11,0,2025-04-05_16h09.02.936,VisualSearchFaces,2024.2.4,Win32,59.88023952,,,,,,,,637.9992,638.1055,638.1055,640.0941,block1,j,1,0,5,5,18,1,1,bottom_left,threatening,neutral,0.6936,,,,,,,,,,,,,,,,,
,,,,,628441,f,y,r,y,11,0,2025-04-05_16h09.02.936,VisualSearchFaces,2024.2.4,Win32,59.88023952,,,,,,,,641.0952,641.1949,641.195,643.1941,block1,f,0,0,6,6,1,1,1,top_left,neutral,friendly,0.469,,,,,,,,,,,,,,,,,
,,,,,628441,f,y,r,y,11,0,2025-04-05_16h09.02.936,VisualSearchFaces,2024.2.4,Win32,59.88023952,,,,,,,,644.1978,644.3046,644.3046,646.2939,block1,f,0,0,7,7,12,1,1,top_right,friendly,neutral,0.7567,,,,,,,,,,,,,,,,,
,,,,,628441,f,y,r,y,11,0,2025-04-05_16h09.02.936,VisualSearchFaces,2024.2.4,Win32,59.88023952,,,,,,,,647.2978,647.4099,647.4099,649.4099,block1,j,1,0,8,8,19,1,1,bottom_right,threatening,neutral,0.9402,,,,,,,,,,,,,,,,,
,,,,,628441,f,y,r,y,11,0,2025-04-05_16h09.02.936,VisualSearchFaces,2024.2.4,Win32,59.88023952,,,,,,,,650.4136,650.5265,650.5266,652.5262,block1,j,1,0,9,9,16,1,1,top_left,threatening,neutral,0.6348,,,,,,,,,,,,,,,,,
,,,,,628441,f,y,r,y,11,0,2025-04-05_16h09.02.936,VisualSearchFaces,2024.2.4,Win32,59.88023952,,,,,,,,653.5275,653.6259,653.6259,655.6259,block1,j,1,0,10,10,5,1,1,centre,neutral,threatening,0.5826,,,,,,,,,,,,,,,,,
,,,,,628441,f,y,r,y,11,0,2025-04-05_16h09.02.936,VisualSearchFaces,2024.2.4,Win32,59.88023952,,,,,,,,656.6306,656.7259,656.7259,658.7254,block1,j,1,0,11,11,2,1,1,top_right,neutral,friendly,0.5038,,,,,,,,,,,,,,,,,
,,,,,628441,f,y,r,y,11,0,2025-04-05_16h09.02.936,VisualSearchFaces,2024.2.4,Win32,59.88023952,,,,,,,,659.7301,659.8421,659.8422,661.8419,block1,f,1,0,12,12,28,1,0,bottom_left,neutral,no_target,0.6506,,,,,,,,,,,,,,,,,
,,,,,628441,f,y,r,y,11,0,2025-04-05_16h09.02.936,VisualSearchFaces,2024.2.4,Win32,59.88023952,,,,,,,,662.8466,662.9424,662.9425,664.9414,block1,j,1,0,13,13,8,1,1,bottom_left,neutral,threatening,0.6028,,,,,,,,,,,,,,,,,
,,,,,628441,f,y,r,y,11,0,2025-04-05_16h09.02.936,VisualSearchFaces,2024.2.4,Win32,59.88023952,,,,,,,,665.9465,666.0522,666.0522,668.0409,block1,f,0,0,14,14,15,1,1,centre,threatening,neutral,0.9249,,,,,,,,,,,,,,,,,
,,,,,628441,f,y,r,y,11,0,2025-04-05_16h09.02.936,VisualSearchFaces,2024.2.4,Win32,59.88023952,,,,,,,,669.046,669.1573,669.1574,671.1572,block1,f,1,0,15,15,37,1,0,top_right,threatening,no_target,0.7347,,,,,,,,,,,,,,,,,
,,,,,628441,f,y,r,y,11,0,2025-04-05_16h09.02.936,VisualSearchFaces,2024.2.4,Win32,59.88023952,,,,,,,,672.1619,672.2617,672.2617,674.2569,block1,j,1,0,16,16,9,1,1,bottom_right,neutral,threatening,0.5299,,,,,,,,,,,,,,,,,
,,,,,628441,f,y,r,y,11,0,2025-04-05_16h09.02.936,VisualSearchFaces,2024.2.4,Win32,59.88023952,,,,,,,,675.2614,675.3736,675.3737,677.3734,block1,j,1,0,17,17,0,1,1,centre,neutral,friendly,0.5176,,,,,,,,,,,,,,,,,
,,,,,628441,f,y,r,y,11,0,2025-04-05_16h09.02.936,VisualSearchFaces,2024.2.4,Win32,59.88023952,,,,,,,,678.378,678.4893,678.4893,680.4897,block1,j,1,0,18,18,10,1,1,centre,friendly,neutral,1.1024,,,,,,,,,,,,,,,,,
,,,,,628441,f,y,r,y,11,0,2025-04-05_16h09.02.936,VisualSearchFaces,2024.2.4,Win32,59.88023952,,,,,,,,681.4946,681.6168,681.6168,683.6059,block1,f,1,0,19,19,25,1,0,centre,neutral,no_target,0.5083,,,,,,,,,,,,,,,,,
,,,,,628441,f,y,r,y,11,0,2025-04-05_16h09.02.936,VisualSearchFaces,2024.2.4,Win32,59.88023952,,,,,,,,684.6101,684.7225,684.7225,686.7217,block1,f,1,0,20,20,26,1,0,top_left,neutral,no_target,0.5507,,,,,,,,,,,,,,,,,
,,,,,628441,f,y,r,y,11,0,2025-04-05_16h09.02.936,VisualSearchFaces,2024.2.4,Win32,59.88023952,,,,,,,,687.725,687.8379,687.838,689.8382,block1,f,1,0,21,21,32,1,0,top_right,friendly,no_target,0.6901,,,,,,,,,,,,,,,,,
,,,,,628441,f,y,r,y,11,0,2025-04-05_16h09.02.936,VisualSearchFaces,2024.2.4,Win32,59.88023952,,,,,,,,690.839,690.9381,690.9382,692.9379,block1,f,1,0,22,22,31,1,0,top_left,friendly,no_target,0.6178,,,,,,,,,,,,,,,,,
,,,,,628441,f,y,r,y,11,0,2025-04-05_16h09.02.936,VisualSearchFaces,2024.2.4,Win32,59.88023952,,,,,,,,693.9421,694.0542,694.0543,696.0542,block1,j,1,0,23,23,17,1,1,top_right,threatening,neutral,0.6676,,,,,,,,,,,,,,,,,
,,,,,628441,f,y,r,y,11,0,2025-04-05_16h09.02.936,VisualSearchFaces,2024.2.4,Win32,59.88023952,,,,,,,,697.0559,697.1705,697.1705,699.1702,block1,f,1,0,24,24,20,1,0,centre,neutral,no_target,0.5664,,,,,,,,,,,,,,,,,
,,,,,628441,f,y,r,y,11,0,2025-04-05_16h09.02.936,VisualSearchFaces,2024.2.4,Win32,59.88023952,,,,,,,,700.1718,700.2705,700.2706,702.2701,block1,f,1,0,25,25,24,1,0,bottom_right,neutral,no_target,0.9152,,,,,,,,,,,,,,,,,
,,,,,628441,f,y,r,y,11,0,2025-04-05_16h09.02.936,VisualSearchFaces,2024.2.4,Win32,59.88023952,,,,,,,,703.275,703.3863,703.3863,705.3863,block1,j,0,0,26,26,33,1,0,bottom_left,friendly,no_target,0.6355,,,,,,,,,,,,,,,,,
,,,,,628441,f,y,r,y,11,0,2025-04-05_16h09.02.936,VisualSearchFaces,2024.2.4,Win32,59.88023952,,,,,,,,706.3906,706.4967,706.4967,708.4862,block1,f,1,0,27,27,29,1,0,bottom_right,neutral,no_target,0.6169,,,,,,,,,,,,,,,,,
,,,,,628441,f,y,r,y,11,0,2025-04-05_16h09.02.936,VisualSearchFaces,2024.2.4,Win32,59.88023952,,,,,,,,709.491,709.6027,709.6027,711.6025,block1,j,1,0,28,28,7,1,1,top_right,neutral,threatening,0.6674,,,,,,,,,,,,,,,,,
,,,,,628441,f,y,r,y,11,0,2025-04-05_16h09.02.936,VisualSearchFaces,2024.2.4,Win32,59.88023952,,,,,,,,712.6051,712.7183,712.7184,714.7184,block1,f,1,0,29,29,30,1,0,centre,friendly,no_target,0.5054,,,,,,,,,,,,,,,,,
,,,,,628441,f,y,r,y,11,0,2025-04-05_16h09.02.936,VisualSearchFaces,2024.2.4,Win32,59.88023952,,,,,,,,715.7228,715.8185,715.8186,717.8181,block1,j,1,0,30,30,14,1,1,bottom_right,friendly,neutral,0.6174,,,,,,,,,,,,,,,,,
,,,,,628441,f,y,r,y,11,0,2025-04-05_16h09.02.936,VisualSearchFaces,2024.2.4,Win32,59.88023952,,,,,,,,718.8212,718.9345,718.9345,720.9346,block1,f,1,0,31,31,36,1,0,top_left,threatening,no_target,0.5176,,,,,,,,,,,,,,,,,
,,,,,628441,f,y,r,y,11,0,2025-04-05_16h09.02.936,VisualSearchFaces,2024.2.4,Win32,59.88023952,,,,,,,,721.9391,722.0451,722.0453,724.0342,block1,j,1,0,32,32,3,1,1,bottom_left,neutral,friendly,0.742,,,,,,,,,,,,,,,,,
,,,,,628441,f,y,r,y,11,0,2025-04-05_16h09.02.936,VisualSearchFaces,2024.2.4,Win32,59.88023952,,,,,,,,725.0388,725.1504,725.1504,727.1504,block1,f,0,0,33,33,13,1,1,bottom_left,friendly,neutral,0.7181,,,,,,,,,,,,,,,,,
,,,,,628441,f,y,r,y,11,0,2025-04-05_16h09.02.936,VisualSearchFaces,2024.2.4,Win32,59.88023952,,,,,,,,728.1526,728.2577,728.2578,730.2502,block1,j,1,0,34,34,11,1,1,top_left,friendly,neutral,0.7267,,,,,,,,,,,,,,,,,
,,,,,628441,f,y,r,y,11,0,2025-04-05_16h09.02.936,VisualSearchFaces,2024.2.4,Win32,59.88023952,,,,,,,,731.2544,731.366,731.366,733.3661,block1,f,1,0,35,35,39,1,0,bottom_right,threatening,no_target,0.7521,,,,,,,,,,,,,,,,,
,,,,,628441,f,y,r,y,11,0,2025-04-05_16h09.02.936,VisualSearchFaces,2024.2.4,Win32,59.88023952,,,,,,,,734.3705,734.4773,734.4774,736.466,block1,f,1,0,36,36,21,1,0,top_left,neutral,no_target,0.7097,,,,,,,,,,,,,,,,,
,,,,,628441,f,y,r,y,11,0,2025-04-05_16h09.02.936,VisualSearchFaces,2024.2.4,Win32,59.88023952,,,,,,,,737.4703,737.582,737.5821,739.5823,block1,f,1,0,37,37,34,1,0,bottom_right,friendly,no_target,0.7685,,,,,,,,,,,,,,,,,
,,,,,628441,f,y,r,y,11,0,2025-04-05_16h09.02.936,VisualSearchFaces,2024.2.4,Win32,59.88023952,,,,,,,,740.5869,740.6984,740.6984,742.6988,block1,f,1,0,38,38,35,1,0,centre,threatening,no_target,1.1526,,,,,,,,,,,,,,,,,
,,,,,628441,f,y,r,y,11,0,2025-04-05_16h09.02.936,VisualSearchFaces,2024.2.4,Win32,59.88023952,,,,,,,,743.7027,743.8092,743.8092,745.7982,block1,j,0,0,39,39,23,1,0,bottom_left,neutral,no_target,0.5242,,,,,,,,,,,,,,,,,
,,,,,628441,f,y,r,y,11,0,2025-04-05_16h09.02.936,VisualSearchFaces,2024.2.4,Win32,59.88023952,,,,,,,,746.802,746.8982,746.8983,748.8978,block1,f,1,1,0,40,26,1,0,top_left,neutral,no_target,0.6339,,,,,,,,,,,,,,,,,
,,,,,628441,f,y,r,y,11,0,2025-04-05_16h09.02.936,VisualSearchFaces,2024.2.4,Win32,59.88023952,,,,,,,,749.9022,750.0144,750.0145,752.0142,block1,j,1,1,1,41,3,1,1,bottom_left,neutral,friendly,0.6156,,,,,,,,,,,,,,,,,
,,,,,628441,f,y,r,y,11,0,2025-04-05_16h09.02.936,VisualSearchFaces,2024.2.4,Win32,59.88023952,,,,,,,,753.0187,753.1306,753.1307,755.1299,block1,f,1,1,2,42,27,1,0,top_right,neutral,no_target,0.6325,,,,,,,,,,,,,,,,,
,,,,,628441,f,y,r,y,11,0,2025-04-05_16h09.02.936,VisualSearchFaces,2024.2.4,Win32,59.88023952,,,,,,,,756.132,756.2463,756.2463,758.2461,block1,j,1,1,3,43,10,1,1,centre,friendly,neutral,0.4838,,,,,,,,,,,,,,,,,
,,,,,628441,f,y,r,y,11,0,2025-04-05_16h09.02.936,VisualSearchFaces,2024.2.4,Win32,59.88023952,,,,,,,,759.2484,759.3629,759.3629,761.3627,block1,f,1,1,4,44,35,1,0,centre,threatening,no_target,0.5171,,,,,,,,,,,,,,,,,
,,,,,628441,f,y,r,y,11,0,2025-04-05_16h09.02.936,VisualSearchFaces,2024.2.4,Win32,59.88023952,,,,,,,,762.3641,762.4625,762.4625,764.4623,block1,f,1,1,5,45,24,1,0,bottom_right,neutral,no_target,0.5839,,,,,,,,,,,,,,,,,
,,,,,628441,f,y,r,y,11,0,2025-04-05_16h09.02.936,VisualSearchFaces,2024.2.4,Win32,59.88023952,,,,,,,,765.4639,765.5786,765.5787,767.5786,block1,j,1,1,6,46,2,1,1,top_right,neutral,friendly,0.5183,,,,,,,,,,,,,,,,,
,,,,,628441,f,y,r,y,11,0,2025-04-05_16h09.02.936,VisualSearchFaces,2024.2.4,Win32,59.88023952,,,,,,,,768.5799,768.6787,768.6787,770.6781,block1,j,1,1,7,47,5,1,1,centre,neutral,threatening,0.6679,,,,,,,,,,,,,,,,,
,,,,,628441,f,y,r,y,11,0,2025-04-05_16h09.02.936,VisualSearchFaces,2024.2.4,Win32,59.88023952,,,,,,,,771.6831,771.7945,771.7945,773.7947,block1,f,0,1,8,48,12,1,1,top_right,friendly,neutral,0.701,,,,,,,,,,,,,,,,,
,,,,,628441,f,y,r,y,11,0,2025-04-05_16h09.02.936,VisualSearchFaces,2024.2.4,Win32,59.88023952,,,,,,,,774.7997,774.8991,774.8991,776.8944,block1,j,1,1,9,49,16,1,1,top_left,threatening,neutral,0.8987,,,,,,,,,,,,,,,,,
,,,,,628441,f,y,r,y,11,0,2025-04-05_16h09.02.936,VisualSearchFaces,2024.2.4,Win32,59.88023952,,,,,,,,777.8973,778.0105,778.0105,780.0105,block1,j,1,1,10,50,8,1,1,bottom_left,neutral,threatening,0.7194,,,,,,,,,,,,,,,,,
,,,,,628441,f,y,r,y,11,0,2025-04-05_16h09.02.936,VisualSearchFaces,2024.2.4,Win32,59.88023952,,,,,,,,781.0156,781.1269,781.1269,783.1269,block1,f,1,1,11,51,20,1,0,centre,neutral,no_target,0.5671,,,,,,,,,,,,,,,,,
,,,,,628441,f,y,r,y,11,0,2025-04-05_16h09.02.936,VisualSearchFaces,2024.2.4,Win32,59.88023952,,,,,,,,784.1297,784.243,784.2431,786.2432,block1,f,1,1,12,52,38,1,0,bottom_left,threatening,no_target,1.4679,,,,,,,,,,,,,,,,,
,,,,,628441,f,y,r,y,11,0,2025-04-05_16h09.02.936,VisualSearchFaces,2024.2.4,Win32,59.88023952,,,,,,,,787.2481,787.3591,787.3591,789.3596,block1,f,1,1,13,53,34,1,0,bottom_right,friendly,no_target,0.574,,,,,,,,,,,,,,,,,
,,,,,628441,f,y,r,y,11,0,2025-04-05_16h09.02.936,VisualSearchFaces,2024.2.4,Win32,59.88023952,,,,,,,,790.3642,790.4757,790.4757,792.4752,block1,f,1,1,14,54,25,1,0,centre,neutral,no_target,0.6014,,,,,,,,,,,,,,,,,
,,,,,628441,f,y,r,y,11,0,2025-04-05_16h09.02.936,VisualSearchFaces,2024.2.4,Win32,59.88023952,,,,,,,,793.4801,793.5833,793.5833,795.5752,block1,f,1,1,15,55,21,1,0,top_left,neutral,no_target,0.7639,,,,,,,,,,,,,,,,,
,,,,,628441,f,y,r,y,11,0,2025-04-05_16h09.02.936,VisualSearchFaces,2024.2.4,Win32,59.88023952,,,,,,,,796.5764,796.6755,796.6755,798.675,block1,j,1,1,16,56,17,1,1,top_right,threatening,neutral,0.5512,,,,,,,,,,,,,,,,,
,,,,,628441,f,y,r,y,11,0,2025-04-05_16h09.02.936,VisualSearchFaces,2024.2.4,Win32,59.88023952,,,,,,,,799.6795,799.7912,799.7912,801.7911,block1,j,1,1,17,57,1,1,1,top_left,neutral,friendly,0.6855,,,,,,,,,,,,,,,,,
,,,,,628441,f,y,r,y,11,0,2025-04-05_16h09.02.936,VisualSearchFaces,2024.2.4,Win32,59.88023952,,,,,,,,802.7962,802.9076,802.9076,804.9075,block1,f,1,1,18,58,22,1,0,top_right,neutral,no_target,0.5673,,,,,,,,,,,,,,,,,
,,,,,628441,f,y,r,y,11,0,2025-04-05_16h09.02.936,VisualSearchFaces,2024.2.4,Win32,59.88023952,,,,,,,,805.9127,806.0233,806.0234,808.0241,block1,f,1,1,19,59,37,1,0,top_right,threatening,no_target,0.5492,,,,,,,,,,,,,,,,,
,,,,,628441,f,y,r,y,11,0,2025-04-05_16h09.02.936,VisualSearchFaces,2024.2.4,Win32,59.88023952,,,,,,,,809.0251,809.1239,809.124,811.1229,block1,f,1,1,20,60,31,1,0,top_left,friendly,no_target,0.6836,,,,,,,,,,,,,,,,,
,,,,,628441,f,y,r,y,11,0,2025-04-05_16h09.02.936,VisualSearchFaces,2024.2.4,Win32,59.88023952,,,,,,,,812.1286,812.2397,812.2398,814.2397,block1,j,1,1,21,61,13,1,1,bottom_left,friendly,neutral,0.7174,,,,,,,,,,,,,,,,,
,,,,,628441,f,y,r,y,11,0,2025-04-05_16h09.02.936,VisualSearchFaces,2024.2.4,Win32,59.88023952,,,,,,,,815.2442,815.3559,815.3559,817.3557,block1,f,1,1,22,62,29,1,0,bottom_right,neutral,no_target,0.5523,,,,,,,,,,,,,,,,,
,,,,,628441,f,y,r,y,11,0,2025-04-05_16h09.02.936,VisualSearchFaces,2024.2.4,Win32,59.88023952,,,,,,,,818.3607,818.4723,818.4724,820.4724,block1,f,1,1,23,63,32,1,0,top_right,friendly,no_target,0.5858,,,,,,,,,,,,,,,,,
,,,,,628441,f,y,r,y,11,0,2025-04-05_16h09.02.936,VisualSearchFaces,2024.2.4,Win32,59.88023952,,,,,,,,821.4773,821.5759,821.5759,823.5719,block1,j,1,1,24,64,18,1,1,bottom_left,threatening,neutral,0.8327,,,,,,,,,,,,,,,,,
,,,,,628441,f,y,r,y,11,0,2025-04-05_16h09.02.936,VisualSearchFaces,2024.2.4,Win32,59.88023952,,,,,,,,824.5766,824.688,824.688,826.6877,block1,f,1,1,25,65,28,1,0,bottom_left,neutral,no_target,0.5519,,,,,,,,,,,,,,,,,
,,,,,628441,f,y,r,y,11,0,2025-04-05_16h09.02.936,VisualSearchFaces,2024.2.4,Win32,59.88023952,,,,,,,,827.6935,827.8044,827.8044,829.8037,block1,j,1,1,26,66,0,1,1,centre,neutral,friendly,0.5345,,,,,,,,,,,,,,,,,
,,,,,628441,f,y,r,y,11,0,2025-04-05_16h09.02.936,VisualSearchFaces,2024.2.4,Win32,59.88023952,,,,,,,,830.8088,830.9207,830.9207,832.9206,block1,f,1,1,27,67,30,1,0,centre,friendly,no_target,0.6848,,,,,,,,,,,,,,,,,
,,,,,628441,f,y,r,y,11,0,2025-04-05_16h09.02.936,VisualSearchFaces,2024.2.4,Win32,59.88023952,,,,,,,,833.9241,834.037,834.037,836.0364,block1,j,1,1,28,68,7,1,1,top_right,neutral,threatening,0.672,,,,,,,,,,,,,,,,,
,,,,,628441,f,y,r,y,11,0,2025-04-05_16h09.02.936,VisualSearchFaces,2024.2.4,Win32,59.88023952,,,,,,,,837.0425,837.1532,837.1533,839.153,block1,j,1,1,29,69,14,1,1,bottom_right,friendly,neutral,0.5379,,,,,,,,,,,,,,,,,
,,,,,628441,f,y,r,y,11,0,2025-04-05_16h09.02.936,VisualSearchFaces,2024.2.4,Win32,59.88023952,,,,,,,,840.1565,840.2697,840.2697,842.2693,block1,j,1,1,30,70,11,1,1,top_left,friendly,neutral,0.5666,,,,,,,,,,,,,,,,,
,,,,,628441,f,y,r,y,11,0,2025-04-05_16h09.02.936,VisualSearchFaces,2024.2.4,Win32,59.88023952,,,,,,,,843.2715,843.3857,843.3857,845.3855,block1,f,0,1,31,71,6,1,1,top_left,neutral,threatening,0.6684,,,,,,,,,,,,,,,,,
,,,,,628441,f,y,r,y,11,0,2025-04-05_16h09.02.936,VisualSearchFaces,2024.2.4,Win32,59.88023952,,,,,,,,846.3888,846.5021,846.5022,848.502,block1,f,1,1,32,72,23,1,0,bottom_left,neutral,no_target,0.5495,,,,,,,,,,,,,,,,,
,,,,,628441,f,y,r,y,11,0,2025-04-05_16h09.02.936,VisualSearchFaces,2024.2.4,Win32,59.88023952,,,,,,,,849.5045,849.6182,849.6182,851.6185,block1,f,1,1,33,73,39,1,0,bottom_right,threatening,no_target,0.7007,,,,,,,,,,,,,,,,,
,,,,,628441,f,y,r,y,11,0,2025-04-05_16h09.02.936,VisualSearchFaces,2024.2.4,Win32,59.88023952,,,,,,,,852.6216,852.7346,852.7347,854.7347,block1,,0,1,34,74,15,1,1,centre,threatening,neutral,,,,,,,,,,,,,,,,,,
,,,,,628441,f,y,r,y,11,0,2025-04-05_16h09.02.936,VisualSearchFaces,2024.2.4,Win32,59.88023952,,,,,,,,855.7377,855.851,855.851,857.8508,block1,j,1,1,35,75,4,1,1,bottom_right,neutral,friendly,0.5676,,,,,,,,,,,,,,,,,
,,,,,628441,f,y,r,y,11,0,2025-04-05_16h09.02.936,VisualSearchFaces,2024.2.4,Win32,59.88023952,,,,,,,,858.8562,858.9672,858.9672,860.9672,block1,f,1,1,36,76,36,1,0,top_left,threatening,no_target,0.6674,,,,,,,,,,,,,,,,,
,,,,,628441,f,y,r,y,11,0,2025-04-05_16h09.02.936,VisualSearchFaces,2024.2.4,Win32,59.88023952,,,,,,,,861.9688,862.0832,862.0832,864.0829,block1,j,1,1,37,77,9,1,1,bottom_right,neutral,threatening,0.6542,,,,,,,,,,,,,,,,,
,,,,,628441,f,y,r,y,11,0,2025-04-05_16h09.02.936,VisualSearchFaces,2024.2.4,Win32,59.88023952,,,,,,,,865.0882,865.1999,865.1999,867.1991,block1,j,1,1,38,78,19,1,1,bottom_right,threatening,neutral,0.5522,,,,,,,,,,,,,,,,,
,,,,,628441,f,y,r,y,11,0,2025-04-05_16h09.02.936,VisualSearchFaces,2024.2.4,Win32,59.88023952,,,,,,,,868.2007,868.2994,868.2995,870.2996,block1,f,1,1,39,79,33,1,0,bottom_left,friendly,no_target,0.7048,,,,,,,,,,,,,,,,,
,,,,,628441,f,y,r,y,11,0,2025-04-05_16h09.02.936,VisualSearchFaces,2024.2.4,Win32,59.88023952,,,892.4319,893.363,space,0.8995,,894.368,894.4797,894.4798,896.4796,block2,j,1,0,0,0,9,1,1,bottom_right,neutral,threatening,1.2686,,870.3041,892.4294,space,22.0969,,,,,,,,,,,,
,,,,,628441,f,y,r,y,11,0,2025-04-05_16h09.02.936,VisualSearchFaces,2024.2.4,Win32,59.88023952,,,,,,,,897.4838,897.5962,897.5964,899.596,block2,f,1,0,1,1,23,1,0,bottom_left,neutral,no_target,0.6504,,,,,,,,,,,,,,,,,
,,,,,628441,f,y,r,y,11,0,2025-04-05_16h09.02.936,VisualSearchFaces,2024.2.4,Win32,59.88023952,,,,,,,,900.6011,900.7125,900.7125,902.7123,block2,f,1,0,2,2,33,1,0,bottom_left,friendly,no_target,0.5663,,,,,,,,,,,,,,,,,
,,,,,628441,f,y,r,y,11,0,2025-04-05_16h09.02.936,VisualSearchFaces,2024.2.4,Win32,59.88023952,,,,,,,,903.7167,903.8285,903.8286,905.8287,block2,j,1,0,3,3,14,1,1,bottom_right,friendly,neutral,0.5342,,,,,,,,,,,,,,,,,
,,,,,628441,f,y,r,y,11,0,2025-04-05_16h09.02.936,VisualSearchFaces,2024.2.4,Win32,59.88023952,,,,,,,,906.833,906.9449,906.945,908.9447,block2,j,1,0,4,4,13,1,1,bottom_left,friendly,neutral,0.5881,,,,,,,,,,,,,,,,,
,,,,,628441,f,y,r,y,11,0,2025-04-05_16h09.02.936,VisualSearchFaces,2024.2.4,Win32,59.88023952,,,,,,,,909.9494,910.061,910.0611,912.0611,block2,f,1,0,5,5,28,1,0,bottom_left,neutral,no_target,0.5856,,,,,,,,,,,,,,,,,
,,,,,628441,f,y,r,y,11,0,2025-04-05_16h09.02.936,VisualSearchFaces,2024.2.4,Win32,59.88023952,,,,,,,,913.0626,913.1769,913.1769,915.1765,block2,f,1,0,6,6,36,1,0,top_left,threatening,no_target,0.7508,,,,,,,,,,,,,,,,,
,,,,,628441,f,y,r,y,11,0,2025-04-05_16h09.02.936,VisualSearchFaces,2024.2.4,Win32,59.88023952,,,,,,,,916.1802,916.2934,916.2935,918.2936,block2,j,1,0,7,7,17,1,1,top_right,threatening,neutral,0.6229,,,,,,,,,,,,,,,,,
,,,,,628441,f,y,r,y,11,0,2025-04-05_16h09.02.936,VisualSearchFaces,2024.2.4,Win32,59.88023952,,,,,,,,919.2946,919.41,919.41,921.4093,block2,j,1,0,8,8,15,1,1,centre,threatening,neutral,0.5999,,,,,,,,,,,,,,,,,
,,,,,628441,f,y,r,y,11,0,2025-04-05_16h09.02.936,VisualSearchFaces,2024.2.4,Win32,59.88023952,,,,,,,,922.4135,922.5258,922.5258,924.5262,block2,j,1,0,9,9,5,1,1,centre,neutral,threatening,0.5403,,,,,,,,,,,,,,,,,
,,,,,628441,f,y,r,y,11,0,2025-04-05_16h09.02.936,VisualSearchFaces,2024.2.4,Win32,59.88023952,,,,,,,,925.5301,925.6261,925.6262,927.6259,block2,f,1,0,10,10,27,1,0,top_right,neutral,no_target,0.4996,,,,,,,,,,,,,,,,,
,,,,,628441,f,y,r,y,11,0,2025-04-05_16h09.02.936,VisualSearchFaces,2024.2.4,Win32,59.88023952,,,,,,,,928.6302,928.7255,928.7255,930.7249,block2,f,1,0,11,11,38,1,0,bottom_left,threatening,no_target,0.5847,,,,,,,,,,,,,,,,,
,,,,,628441,f,y,r,y,11,0,2025-04-05_16h09.02.936,VisualSearchFaces,2024.2.4,Win32,59.88023952,,,,,,,,931.7293,931.8417,931.8417,933.8417,block2,f,1,0,12,12,20,1,0,centre,neutral,no_target,0.536,,,,,,,,,,,,,,,,,
,,,,,628441,f,y,r,y,11,0,2025-04-05_16h09.02.936,VisualSearchFaces,2024.2.4,Win32,59.88023952,,,,,,,,934.8467,934.9581,934.9582,936.958,block2,j,1,0,13,13,8,1,1,bottom_left,neutral,threatening,0.6009,,,,,,,,,,,,,,,,,
,,,,,628441,f,y,r,y,11,0,2025-04-05_16h09.02.936,VisualSearchFaces,2024.2.4,Win32,59.88023952,,,,,,,,937.9622,938.0746,938.0746,940.0744,block2,f,1,0,14,14,24,1,0,bottom_right,neutral,no_target,0.4674,,,,,,,,,,,,,,,,,
,,,,,628441,f,y,r,y,11,0,2025-04-05_16h09.02.936,VisualSearchFaces,2024.2.4,Win32,59.88023952,,,,,,,,941.0796,941.1771,941.1772,943.174,block2,f,1,0,15,15,35,1,0,centre,threatening,no_target,0.5986,,,,,,,,,,,,,,,,,
,,,,,628441,f,y,r,y,11,0,2025-04-05_16h09.02.936,VisualSearchFaces,2024.2.4,Win32,59.88023952,,,,,,,,944.1785,944.29,944.29,946.2903,block2,j,1,0,16,16,7,1,1,top_right,neutral,threatening,0.6722,,,,,,,,,,,,,,,,,
,,,,,628441,f,y,r,y,11,0,2025-04-05_16h09.02.936,VisualSearchFaces,2024.2.4,Win32,59.88023952,,,,,,,,947.2946,947.4062,947.4063,949.4061,block2,f,1,0,17,17,37,1,0,top_right,threatening,no_target,0.5846,,,,,,,,,,,,,,,,,
,,,,,628441,f,y,r,y,11,0,2025-04-05_16h09.02.936,VisualSearchFaces,2024.2.4,Win32,59.88023952,,,,,,,,950.4114,950.5227,950.5227,952.5227,block2,f,1,0,18,18,25,1,0,centre,neutral,no_target,0.5662,,,,,,,,,,,,,,,,,
,,,,,628441,f,y,r,y,11,0,2025-04-05_16h09.02.936,VisualSearchFaces,2024.2.4,Win32,59.88023952,,,,,,,,953.5272,953.6394,953.6394,955.6389,block2,j,1,0,19,19,1,1,1,top_left,neutral,friendly,0.5056,,,,,,,,,,,,,,,,,
,,,,,628441,f,y,r,y,11,0,2025-04-05_16h09.02.936,VisualSearchFaces,2024.2.4,Win32,59.88023952,,,,,,,,956.642,956.7553,956.7553,958.7551,block2,j,1,0,20,20,19,1,1,bottom_right,threatening,neutral,0.6512,,,,,,,,,,,,,,,,,
,,,,,628441,f,y,r,y,11,0,2025-04-05_16h09.02.936,VisualSearchFaces,2024.2.4,Win32,59.88023952,,,,,,,,959.7602,959.8717,959.8717,961.8717,block2,j,1,0,21,21,3,1,1,bottom_left,neutral,friendly,0.6221,,,,,,,,,,,,,,,,,
,,,,,628441,f,y,r,y,11,0,2025-04-05_16h09.02.936,VisualSearchFaces,2024.2.4,Win32,59.88023952,,,,,,,,962.8763,962.9876,962.9876,964.9879,block2,f,1,0,22,22,31,1,0,top_left,friendly,no_target,0.7212,,,,,,,,,,,,,,,,,
,,,,,628441,f,y,r,y,11,0,2025-04-05_16h09.02.936,VisualSearchFaces,2024.2.4,Win32,59.88023952,,,,,,,,965.993,966.1042,966.1042,968.1043,block2,j,1,0,23,23,0,1,1,centre,neutral,friendly,0.5004,,,,,,,,,,,,,,,,,
,,,,,628441,f,y,r,y,11,0,2025-04-05_16h09.02.936,VisualSearchFaces,2024.2.4,Win32,59.88023952,,,,,,,,969.1091,969.2209,969.221,971.2207,block2,f,1,0,24,24,34,1,0,bottom_right,friendly,no_target,0.7675,,,,,,,,,,,,,,,,,
,,,,,628441,f,y,r,y,11,0,2025-04-05_16h09.02.936,VisualSearchFaces,2024.2.4,Win32,59.88023952,,,,,,,,972.2248,972.3363,972.3363,974.3363,block2,j,1,0,25,25,2,1,1,top_right,neutral,friendly,0.6699,,,,,,,,,,,,,,,,,
,,,,,628441,f,y,r,y,11,0,2025-04-05_16h09.02.936,VisualSearchFaces,2024.2.4,Win32,59.88023952,,,,,,,,975.3407,975.4525,975.4526,977.4525,block2,f,1,0,26,26,26,1,0,top_left,neutral,no_target,0.5362,,,,,,,,,,,,,,,,,
,,,,,628441,f,y,r,y,11,0,2025-04-05_16h09.02.936,VisualSearchFaces,2024.2.4,Win32,59.88023952,,,,,,,,978.4581,978.5688,978.5688,980.5692,block2,f,1,0,27,27,21,1,0,top_left,neutral,no_target,0.586,,,,,,,,,,,,,,,,,
,,,,,628441,f,y,r,y,11,0,2025-04-05_16h09.02.936,VisualSearchFaces,2024.2.4,Win32,59.88023952,,,,,,,,981.572,981.6852,981.6852,983.6857,block2,j,1,0,28,28,12,1,1,top_right,friendly,neutral,0.5177,,,,,,,,,,,,,,,,,
,,,,,628441,f,y,r,y,11,0,2025-04-05_16h09.02.936,VisualSearchFaces,2024.2.4,Win32,59.88023952,,,,,,,,984.6901,984.7931,984.7932,986.7851,block2,f,0,0,29,29,10,1,1,centre,friendly,neutral,0.7164,,,,,,,,,,,,,,,,,
,,,,,628441,f,y,r,y,11,0,2025-04-05_16h09.02.936,VisualSearchFaces,2024.2.4,Win32,59.88023952,,,,,,,,987.7914,987.9016,987.9017,989.9011,block2,j,1,0,30,30,16,1,1,top_left,threatening,neutral,1.2882,,,,,,,,,,,,,,,,,
,,,,,628441,f,y,r,y,11,0,2025-04-05_16h09.02.936,VisualSearchFaces,2024.2.4,Win32,59.88023952,,,,,,,,990.9064,991.0181,991.0181,993.0177,block2,j,1,0,31,31,18,1,1,bottom_left,threatening,neutral,0.6007,,,,,,,,,,,,,,,,,
,,,,,628441,f,y,r,y,11,0,2025-04-05_16h09.02.936,VisualSearchFaces,2024.2.4,Win32,59.88023952,,,,,,,,994.021,994.134,994.134,996.1341,block2,j,1,0,32,32,4,1,1,bottom_right,neutral,friendly,0.7195,,,,,,,,,,,,,,,,,
,,,,,628441,f,y,r,y,11,0,2025-04-05_16h09.02.936,VisualSearchFaces,2024.2.4,Win32,59.88023952,,,,,,,,997.1353,997.2341,997.2341,999.2337,block2,f,1,0,33,33,22,1,0,top_right,neutral,no_target,0.6338,,,,,,,,,,,,,,,,,
,,,,,628441,f,y,r,y,11,0,2025-04-05_16h09.02.936,VisualSearchFaces,2024.2.4,Win32,59.88023952,,,,,,,,1000.235,1000.3496,1000.3497,1002.3497,block2,f,1,0,34,34,32,1,0,top_right,friendly,no_target,0.6357,,,,,,,,,,,,,,,,,
,,,,,628441,f,y,r,y,11,0,2025-04-05_16h09.02.936,VisualSearchFaces,2024.2.4,Win32,59.88023952,,,,,,,,1003.3543,1003.4664,1003.4664,1005.4662,block2,f,1,0,35,35,30,1,0,centre,friendly,no_target,0.533,,,,,,,,,,,,,,,,,
,,,,,628441,f,y,r,y,11,0,2025-04-05_16h09.02.936,VisualSearchFaces,2024.2.4,Win32,59.88023952,,,,,,,,1006.4674,1006.5658,1006.5659,1008.5661,block2,j,1,0,36,36,11,1,1,top_left,friendly,neutral,0.569,,,,,,,,,,,,,,,,,
,,,,,628441,f,y,r,y,11,0,2025-04-05_16h09.02.936,VisualSearchFaces,2024.2.4,Win32,59.88023952,,,,,,,,1009.5707,1009.6822,1009.6823,1011.6824,block2,j,1,0,37,37,6,1,1,top_left,neutral,threatening,0.5044,,,,,,,,,,,,,,,,,
,,,,,628441,f,y,r,y,11,0,2025-04-05_16h09.02.936,VisualSearchFaces,2024.2.4,Win32,59.88023952,,,,,,,,1012.6866,1012.798,1012.7981,1014.7983,block2,f,1,0,38,38,39,1,0,bottom_right,threatening,no_target,0.6225,,,,,,,,,,,,,,,,,
,,,,,628441,f,y,r,y,11,0,2025-04-05_16h09.02.936,VisualSearchFaces,2024.2.4,Win32,59.88023952,,,,,,,,1015.803,1015.9143,1015.9143,1017.9149,block2,f,1,0,39,39,29,1,0,bottom_right,neutral,no_target,0.5528,,,,,,,,,,,,,,,,,
,,,,,628441,f,y,r,y,11,0,2025-04-05_16h09.02.936,VisualSearchFaces,2024.2.4,Win32,59.88023952,,,,,,,,1018.9199,1019.0309,1019.0309,1021.031,block2,f,1,1,0,40,31,1,0,top_left,friendly,no_target,0.6389,,,,,,,,,,,,,,,,,
,,,,,628441,f,y,r,y,11,0,2025-04-05_16h09.02.936,VisualSearchFaces,2024.2.4,Win32,59.88023952,,,,,,,,1022.036,1022.1473,1022.1473,1024.1473,block2,j,1,1,1,41,3,1,1,bottom_left,neutral,friendly,0.5686,,,,,,,,,,,,,,,,,
,,,,,628441,f,y,r,y,11,0,2025-04-05_16h09.02.936,VisualSearchFaces,2024.2.4,Win32,59.88023952,,,,,,,,1025.1481,1025.247,1025.2471,1027.2469,block2,f,1,1,2,42,29,1,0,bottom_right,neutral,no_target,0.5821,,,,,,,,,,,,,,,,,
,,,,,628441,f,y,r,y,11,0,2025-04-05_16h09.02.936,VisualSearchFaces,2024.2.4,Win32,59.88023952,,,,,,,,1028.2514,1028.3634,1028.3634,1030.3633,block2,j,1,1,3,43,9,1,1,bottom_right,neutral,threatening,0.5846,,,,,,,,,,,,,,,,,
,,,,,628441,f,y,r,y,11,0,2025-04-05_16h09.02.936,VisualSearchFaces,2024.2.4,Win32,59.88023952,,,,,,,,1031.3676,1031.4798,1031.4798,1033.4795,block2,j,1,1,4,44,8,1,1,bottom_left,neutral,threatening,0.484,,,,,,,,,,,,,,,,,
,,,,,628441,f,y,r,y,11,0,2025-04-05_16h09.02.936,VisualSearchFaces,2024.2.4,Win32,59.88023952,,,,,,,,1034.4841,1034.5953,1034.5953,1036.5951,block2,j,1,1,5,45,18,1,1,bottom_left,threatening,neutral,0.6037,,,,,,,,,,,,,,,,,
,,,,,628441,f,y,r,y,11,0,2025-04-05_16h09.02.936,VisualSearchFaces,2024.2.4,Win32,59.88023952,,,,,,,,1037.5988,1037.7117,1037.7117,1039.7121,block2,j,1,1,6,46,11,1,1,top_left,friendly,neutral,0.6341,,,,,,,,,,,,,,,,,
,,,,,628441,f,y,r,y,11,0,2025-04-05_16h09.02.936,VisualSearchFaces,2024.2.4,Win32,59.88023952,,,,,,,,1040.7167,1040.8279,1040.8279,1042.8276,block2,j,1,1,7,47,17,1,1,top_right,threatening,neutral,0.5192,,,,,,,,,,,,,,,,,
,,,,,628441,f,y,r,y,11,0,2025-04-05_16h09.02.936,VisualSearchFaces,2024.2.4,Win32,59.88023952,,,,,,,,1043.8316,1043.9446,1043.9447,1045.9448,block2,j,0,1,8,48,34,1,0,bottom_right,friendly,no_target,0.7685,,,,,,,,,,,,,,,,,
,,,,,628441,f,y,r,y,11,0,2025-04-05_16h09.02.936,VisualSearchFaces,2024.2.4,Win32,59.88023952,,,,,,,,1046.9492,1047.061,1047.061,1049.0608,block2,j,1,1,9,49,12,1,1,top_right,friendly,neutral,0.5187,,,,,,,,,,,,,,,,,
,,,,,628441,f,y,r,y,11,0,2025-04-05_16h09.02.936,VisualSearchFaces,2024.2.4,Win32,59.88023952,,,,,,,,1050.0661,1050.1769,1050.1769,1052.177,block2,f,1,1,10,50,21,1,0,top_left,neutral,no_target,0.719,,,,,,,,,,,,,,,,,
,,,,,628441,f,y,r,y,11,0,2025-04-05_16h09.02.936,VisualSearchFaces,2024.2.4,Win32,59.88023952,,,,,,,,1053.1803,1053.2933,1053.2933,1055.2936,block2,f,1,1,11,51,32,1,0,top_right,friendly,no_target,0.818,,,,,,,,,,,,,,,,,
,,,,,628441,f,y,r,y,11,0,2025-04-05_16h09.02.936,VisualSearchFaces,2024.2.4,Win32,59.88023952,,,,,,,,1056.3002,1056.4101,1056.4101,1058.4098,block2,f,1,1,12,52,33,1,0,bottom_left,friendly,no_target,0.9337,,,,,,,,,,,,,,,,,
,,,,,628441,f,y,r,y,11,0,2025-04-05_16h09.02.936,VisualSearchFaces,2024.2.4,Win32,59.88023952,,,,,,,,1059.414,1059.5145,1059.5145,1061.5093,block2,f,1,1,13,53,37,1,0,top_right,threatening,no_target,0.6796,,,,,,,,,,,,,,,,,
,,,,,628441,f,y,r,y,11,0,2025-04-05_16h09.02.936,VisualSearchFaces,2024.2.4,Win32,59.88023952,,,,,,,,1062.5139,1062.6254,1062.6255,1064.6253,block2,j,0,1,14,54,20,1,0,centre,neutral,no_target,0.5027,,,,,,,,,,,,,,,,,
,,,,,628441,f,y,r,y,11,0,2025-04-05_16h09.02.936,VisualSearchFaces,2024.2.4,Win32,59.88023952,,,,,,,,1065.6304,1065.7419,1065.7419,1067.7418,block2,j,1,1,15,55,13,1,1,bottom_left,friendly,neutral,0.9726,,,,,,,,,,,,,,,,,
,,,,,628441,f,y,r,y,11,0,2025-04-05_16h09.02.936,VisualSearchFaces,2024.2.4,Win32,59.88023952,,,,,,,,1068.7456,1068.8581,1068.8581,1070.8579,block2,f,1,1,16,56,26,1,0,top_left,neutral,no_target,0.5849,,,,,,,,,,,,,,,,,
,,,,,628441,f,y,r,y,11,0,2025-04-05_16h09.02.936,VisualSearchFaces,2024.2.4,Win32,59.88023952,,,,,,,,1071.8593,1071.9579,1071.9579,1073.9576,block2,j,1,1,17,57,7,1,1,top_right,neutral,threatening,0.5244,,,,,,,,,,,,,,,,,
,,,,,628441,f,y,r,y,11,0,2025-04-05_16h09.02.936,VisualSearchFaces,2024.2.4,Win32,59.88023952,,,,,,,,1074.9607,1075.0741,1075.0742,1077.0736,block2,f,1,1,18,58,24,1,0,bottom_right,neutral,no_target,0.6182,,,,,,,,,,,,,,,,,
,,,,,628441,f,y,r,y,11,0,2025-04-05_16h09.02.936,VisualSearchFaces,2024.2.4,Win32,59.88023952,,,,,,,,1078.0765,1078.1903,1078.1904,1080.1901,block2,j,1,1,19,59,16,1,1,top_left,threatening,neutral,0.5173,,,,,,,,,,,,,,,,,
,,,,,628441,f,y,r,y,11,0,2025-04-05_16h09.02.936,VisualSearchFaces,2024.2.4,Win32,59.88023952,,,,,,,,1081.1929,1081.29,1081.29,1083.29,block2,f,1,1,20,60,27,1,0,top_right,neutral,no_target,0.6001,,,,,,,,,,,,,,,,,
,,,,,628441,f,y,r,y,11,0,2025-04-05_16h09.02.936,VisualSearchFaces,2024.2.4,Win32,59.88023952,,,,,,,,1084.2921,1084.4062,1084.4062,1086.4065,block2,j,1,1,21,61,6,1,1,top_left,neutral,threatening,0.5066,,,,,,,,,,,,,,,,,
,,,,,628441,f,y,r,y,11,0,2025-04-05_16h09.02.936,VisualSearchFaces,2024.2.4,Win32,59.88023952,,,,,,,,1087.4112,1087.5229,1087.523,1089.5225,block2,j,1,1,22,62,2,1,1,top_right,neutral,friendly,0.4671,,,,,,,,,,,,,,,,,
,,,,,628441,f,y,r,y,11,0,2025-04-05_16h09.02.936,VisualSearchFaces,2024.2.4,Win32,59.88023952,,,,,,,,1090.5268,1090.6389,1090.639,1092.6384,block2,f,1,1,23,63,23,1,0,bottom_left,neutral,no_target,0.5515,,,,,,,,,,,,,,,,,
,,,,,628441,f,y,r,y,11,0,2025-04-05_16h09.02.936,VisualSearchFaces,2024.2.4,Win32,59.88023952,,,,,,,,1093.6411,1093.7552,1093.7552,1095.755,block2,f,0,1,24,64,14,1,1,bottom_right,friendly,neutral,0.668,,,,,,,,,,,,,,,,,
,,,,,628441,f,y,r,y,11,0,2025-04-05_16h09.02.936,VisualSearchFaces,2024.2.4,Win32,59.88023952,,,,,,,,1096.7594,1096.8658,1096.8658,1098.8549,block2,j,1,1,25,65,5,1,1,centre,neutral,threatening,0.5746,,,,,,,,,,,,,,,,,
,,,,,628441,f,y,r,y,11,0,2025-04-05_16h09.02.936,VisualSearchFaces,2024.2.4,Win32,59.88023952,,,,,,,,1099.8599,1099.971,1099.971,1101.9706,block2,f,1,1,26,66,25,1,0,centre,neutral,no_target,0.4835,,,,,,,,,,,,,,,,,
,,,,,628441,f,y,r,y,11,0,2025-04-05_16h09.02.936,VisualSearchFaces,2024.2.4,Win32,59.88023952,,,,,,,,1102.9737,1103.087,1103.0871,1105.0874,block2,j,0,1,27,67,30,1,0,centre,friendly,no_target,0.7368,,,,,,,,,,,,,,,,,
,,,,,628441,f,y,r,y,11,0,2025-04-05_16h09.02.936,VisualSearchFaces,2024.2.4,Win32,59.88023952,,,,,,,,1106.092,1106.2034,1106.2034,1108.2037,block2,f,1,1,28,68,28,1,0,bottom_left,neutral,no_target,0.4832,,,,,,,,,,,,,,,,,
,,,,,628441,f,y,r,y,11,0,2025-04-05_16h09.02.936,VisualSearchFaces,2024.2.4,Win32,59.88023952,,,,,,,,1109.209,1109.3197,1109.3197,1111.3198,block2,f,1,1,29,69,36,1,0,top_left,threatening,no_target,0.5526,,,,,,,,,,,,,,,,,
,,,,,628441,f,y,r,y,11,0,2025-04-05_16h09.02.936,VisualSearchFaces,2024.2.4,Win32,59.88023952,,,,,,,,1112.3245,1112.4367,1112.4367,1114.4363,block2,f,1,1,30,70,39,1,0,bottom_right,threatening,no_target,0.404,,,,,,,,,,,,,,,,,
,,,,,628441,f,y,r,y,11,0,2025-04-05_16h09.02.936,VisualSearchFaces,2024.2.4,Win32,59.88023952,,,,,,,,1115.4415,1115.5366,1115.5366,1117.536,block2,j,1,1,31,71,19,1,1,bottom_right,threatening,neutral,0.5958,,,,,,,,,,,,,,,,,
,,,,,628441,f,y,r,y,11,0,2025-04-05_16h09.02.936,VisualSearchFaces,2024.2.4,Win32,59.88023952,,,,,,,,1118.5394,1118.6525,1118.6525,1120.6521,block2,j,1,1,32,72,15,1,1,centre,threatening,neutral,0.6838,,,,,,,,,,,,,,,,,
,,,,,628441,f,y,r,y,11,0,2025-04-05_16h09.02.936,VisualSearchFaces,2024.2.4,Win32,59.88023952,,,,,,,,1121.6565,1121.7683,1121.7684,1123.7693,block2,f,1,1,33,73,35,1,0,centre,threatening,no_target,0.6179,,,,,,,,,,,,,,,,,
,,,,,628441,f,y,r,y,11,0,2025-04-05_16h09.02.936,VisualSearchFaces,2024.2.4,Win32,59.88023952,,,,,,,,1124.7711,1124.8846,1124.8846,1126.8844,block2,j,1,1,34,74,1,1,1,top_left,neutral,friendly,0.6007,,,,,,,,,,,,,,,,,
,,,,,628441,f,y,r,y,11,0,2025-04-05_16h09.02.936,VisualSearchFaces,2024.2.4,Win32,59.88023952,,,,,,,,1127.8871,1128.0007,1128.0008,1130.0006,block2,f,1,1,35,75,22,1,0,top_right,neutral,no_target,0.4333,,,,,,,,,,,,,,,,,
,,,,,628441,f,y,r,y,11,0,2025-04-05_16h09.02.936,VisualSearchFaces,2024.2.4,Win32,59.88023952,,,,,,,,1131.003,1131.1004,1131.1004,1133.0998,block2,j,1,1,36,76,10,1,1,centre,friendly,neutral,0.6517,,,,,,,,,,,,,,,,,
,,,,,628441,f,y,r,y,11,0,2025-04-05_16h09.02.936,VisualSearchFaces,2024.2.4,Win32,59.88023952,,,,,,,,1134.1026,1134.2166,1134.2166,1136.2165,block2,f,1,1,37,77,38,1,0,bottom_left,threatening,no_target,0.5504,,,,,,,,,,,,,,,,,
,,,,,628441,f,y,r,y,11,0,2025-04-05_16h09.02.936,VisualSearchFaces,2024.2.4,Win32,59.88023952,,,,,,,,1137.2178,1137.3165,1137.3165,1139.3162,block2,j,1,1,38,78,0,1,1,centre,neutral,friendly,0.4528,,,,,,,,,,,,,,,,,
,,,,,628441,f,y,r,y,11,0,2025-04-05_16h09.02.936,VisualSearchFaces,2024.2.4,Win32,59.88023952,,,,,,,,1140.3187,1140.4328,1140.4328,1142.4325,block2,j,1,1,39,79,4,1,1,bottom_right,neutral,friendly,0.4835,,,,,,,,,,,,,,,,,
,,,,,628441,f,y,r,y,11,0,2025-04-05_16h09.02.936,VisualSearchFaces,2024.2.4,Win32,59.88023952,,,1214.4978,1215.8072,space,1.2754,,1216.8117,1216.9233,1216.9233,1218.9228,block3,j,0,0,0,0,39,1,0,bottom_right,threatening,no_target,1.2674,,1142.4363,1214.4906,space,72.0245,,,,,,,,,,,,
,,,,,628441,f,y,r,y,11,0,2025-04-05_16h09.02.936,VisualSearchFaces,2024.2.4,Win32,59.88023952,,,,,,,,1219.9276,1220.0394,1220.0395,1222.0394,block3,j,1,0,1,1,12,1,1,top_right,friendly,neutral,0.5566,,,,,,,,,,,,,,,,,
,,,,,628441,f,y,r,y,11,0,2025-04-05_16h09.02.936,VisualSearchFaces,2024.2.4,Win32,59.88023952,,,,,,,,1223.0442,1223.1559,1223.1559,1225.156,block3,j,1,0,2,2,0,1,1,centre,neutral,friendly,0.5682,,,,,,,,,,,,,,,,,
,,,,,628441,f,y,r,y,11,0,2025-04-05_16h09.02.936,VisualSearchFaces,2024.2.4,Win32,59.88023952,,,,,,,,1226.1602,1226.2722,1226.2722,1228.2724,block3,j,1,0,3,3,18,1,1,bottom_left,threatening,neutral,0.7513,,,,,,,,,,,,,,,,,
,,,,,628441,f,y,r,y,11,0,2025-04-05_16h09.02.936,VisualSearchFaces,2024.2.4,Win32,59.88023952,,,,,,,,1229.2769,1229.3886,1229.3887,1231.3883,block3,f,1,0,4,4,38,1,0,bottom_left,threatening,no_target,0.5841,,,,,,,,,,,,,,,,,
,,,,,628441,f,y,r,y,11,0,2025-04-05_16h09.02.936,VisualSearchFaces,2024.2.4,Win32,59.88023952,,,,,,,,1232.3928,1232.5051,1232.5052,1234.505,block3,j,1,0,5,5,15,1,1,centre,threatening,neutral,0.5008,,,,,,,,,,,,,,,,,
,,,,,628441,f,y,r,y,11,0,2025-04-05_16h09.02.936,VisualSearchFaces,2024.2.4,Win32,59.88023952,,,,,,,,1235.5109,1235.621,1235.621,1237.6212,block3,j,1,0,6,6,11,1,1,top_left,friendly,neutral,0.4692,,,,,,,,,,,,,,,,,
,,,,,628441,f,y,r,y,11,0,2025-04-05_16h09.02.936,VisualSearchFaces,2024.2.4,Win32,59.88023952,,,,,,,,1238.6255,1238.7372,1238.7372,1240.7371,block3,j,1,0,7,7,17,1,1,top_right,threatening,neutral,0.469,,,,,,,,,,,,,,,,,
,,,,,628441,f,y,r,y,11,0,2025-04-05_16h09.02.936,VisualSearchFaces,2024.2.4,Win32,59.88023952,,,,,,,,1241.7422,1241.8536,1241.8536,1243.8534,block3,j,0,0,8,8,21,1,0,top_left,neutral,no_target,0.4183,,,,,,,,,,,,,,,,,
,,,,,628441,f,y,r,y,11,0,2025-04-05_16h09.02.936,VisualSearchFaces,2024.2.4,Win32,59.88023952,,,,,,,,1244.8582,1244.9536,1244.9536,1246.953,block3,f,1,0,9,9,29,1,0,bottom_right,neutral,no_target,0.6011,,,,,,,,,,,,,,,,,
,,,,,628441,f,y,r,y,11,0,2025-04-05_16h09.02.936,VisualSearchFaces,2024.2.4,Win32,59.88023952,,,,,,,,1247.9584,1248.0638,1248.0638,1250.0529,block3,j,1,0,10,10,16,1,1,top_left,threatening,neutral,0.8573,,,,,,,,,,,,,,,,,
,,,,,628441,f,y,r,y,11,0,2025-04-05_16h09.02.936,VisualSearchFaces,2024.2.4,Win32,59.88023952,,,,,,,,1251.0571,1251.1689,1251.1689,1253.1692,block3,j,1,0,11,11,10,1,1,centre,friendly,neutral,0.5225,,,,,,,,,,,,,,,,,
,,,,,628441,f,y,r,y,11,0,2025-04-05_16h09.02.936,VisualSearchFaces,2024.2.4,Win32,59.88023952,,,,,,,,1254.1706,1254.2849,1254.2849,1256.2855,block3,f,1,0,12,12,23,1,0,bottom_left,neutral,no_target,0.5662,,,,,,,,,,,,,,,,,
,,,,,628441,f,y,r,y,11,0,2025-04-05_16h09.02.936,VisualSearchFaces,2024.2.4,Win32,59.88023952,,,,,,,,1257.2897,1257.4022,1257.4022,1259.4018,block3,j,1,0,13,13,6,1,1,top_left,neutral,threatening,0.5347,,,,,,,,,,,,,,,,,
,,,,,628441,f,y,r,y,11,0,2025-04-05_16h09.02.936,VisualSearchFaces,2024.2.4,Win32,59.88023952,,,,,,,,1260.4065,1260.5179,1260.5179,1262.518,block3,j,1,0,14,14,13,1,1,bottom_left,friendly,neutral,0.7681,,,,,,,,,,,,,,,,,
,,,,,628441,f,y,r,y,11,0,2025-04-05_16h09.02.936,VisualSearchFaces,2024.2.4,Win32,59.88023952,,,,,,,,1263.5225,1263.6342,1263.6343,1265.6345,block3,j,1,0,15,15,4,1,1,bottom_right,neutral,friendly,0.6724,,,,,,,,,,,,,,,,,
,,,,,628441,f,y,r,y,11,0,2025-04-05_16h09.02.936,VisualSearchFaces,2024.2.4,Win32,59.88023952,,,,,,,,1266.6394,1266.7507,1266.7507,1268.7507,block3,j,1,0,16,16,1,1,1,top_left,neutral,friendly,0.7686,,,,,,,,,,,,,,,,,
,,,,,628441,f,y,r,y,11,0,2025-04-05_16h09.02.936,VisualSearchFaces,2024.2.4,Win32,59.88023952,,,,,,,,1269.7555,1269.8664,1269.8665,1271.8667,block3,f,1,0,17,17,33,1,0,bottom_left,friendly,no_target,0.6857,,,,,,,,,,,,,,,,,
,,,,,628441,f,y,r,y,11,0,2025-04-05_16h09.02.936,VisualSearchFaces,2024.2.4,Win32,59.88023952,,,,,,,,1272.8713,1272.983,1272.9831,1274.9831,block3,f,1,0,18,18,35,1,0,centre,threatening,no_target,0.6856,,,,,,,,,,,,,,,,,
,,,,,628441,f,y,r,y,11,0,2025-04-05_16h09.02.936,VisualSearchFaces,2024.2.4,Win32,59.88023952,,,,,,,,1275.9879,1276.0998,1276.0999,1278.0989,block3,f,1,0,19,19,37,1,0,top_right,threatening,no_target,0.5147,,,,,,,,,,,,,,,,,
,,,,,628441,f,y,r,y,11,0,2025-04-05_16h09.02.936,VisualSearchFaces,2024.2.4,Win32,59.88023952,,,,,,,,1279.1012,1279.2104,1279.2104,1281.1988,block3,f,1,0,20,20,25,1,0,centre,neutral,no_target,0.5748,,,,,,,,,,,,,,,,,
,,,,,628441,f,y,r,y,11,0,2025-04-05_16h09.02.936,VisualSearchFaces,2024.2.4,Win32,59.88023952,,,,,,,,1282.2037,1282.3152,1282.3152,1284.315,block3,f,1,0,21,21,32,1,0,top_right,friendly,no_target,0.553,,,,,,,,,,,,,,,,,
,,,,,628441,f,y,r,y,11,0,2025-04-05_16h09.02.936,VisualSearchFaces,2024.2.4,Win32,59.88023952,,,,,,,,1285.3204,1285.4314,1285.4315,1287.4315,block3,j,1,0,22,22,3,1,1,bottom_left,neutral,friendly,0.6179,,,,,,,,,,,,,,,,,
,,,,,628441,f,y,r,y,11,0,2025-04-05_16h09.02.936,VisualSearchFaces,2024.2.4,Win32,59.88023952,,,,,,,,1288.436,1288.5484,1288.5485,1290.5477,block3,f,1,0,23,23,26,1,0,top_left,neutral,no_target,0.4715,,,,,,,,,,,,,,,,,
,,,,,628441,f,y,r,y,11,0,2025-04-05_16h09.02.936,VisualSearchFaces,2024.2.4,Win32,59.88023952,,,,,,,,1291.5525,1291.6645,1291.6646,1293.6642,block3,f,1,0,24,24,28,1,0,bottom_left,neutral,no_target,0.4841,,,,,,,,,,,,,,,,,
,,,,,628441,f,y,r,y,11,0,2025-04-05_16h09.02.936,VisualSearchFaces,2024.2.4,Win32,59.88023952,,,,,,,,1294.6698,1294.7678,1294.7678,1296.764,block3,j,0,0,25,25,36,1,0,top_left,threatening,no_target,0.5166,,,,,,,,,,,,,,,,,
,,,,,628441,f,y,r,y,11,0,2025-04-05_16h09.02.936,VisualSearchFaces,2024.2.4,Win32,59.88023952,,,,,,,,1297.7687,1297.8797,1297.8798,1299.8799,block3,f,1,0,26,26,24,1,0,bottom_right,neutral,no_target,0.5192,,,,,,,,,,,,,,,,,
,,,,,628441,f,y,r,y,11,0,2025-04-05_16h09.02.936,VisualSearchFaces,2024.2.4,Win32,59.88023952,,,,,,,,1300.8847,1300.9967,1300.9967,1302.9962,block3,j,1,0,27,27,5,1,1,centre,neutral,threatening,0.4671,,,,,,,,,,,,,,,,,
,,,,,628441,f,y,r,y,11,0,2025-04-05_16h09.02.936,VisualSearchFaces,2024.2.4,Win32,59.88023952,,,,,,,,1304.001,1304.113,1304.113,1306.1127,block3,j,1,0,28,28,7,1,1,top_right,neutral,threatening,0.4174,,,,,,,,,,,,,,,,,
,,,,,628441,f,y,r,y,11,0,2025-04-05_16h09.02.936,VisualSearchFaces,2024.2.4,Win32,59.88023952,,,,,,,,1307.1151,1307.2287,1307.2288,1309.2286,block3,f,1,0,29,29,30,1,0,centre,friendly,no_target,0.6687,,,,,,,,,,,,,,,,,
,,,,,628441,f,y,r,y,11,0,2025-04-05_16h09.02.936,VisualSearchFaces,2024.2.4,Win32,59.88023952,,,,,,,,1310.2334,1310.3455,1310.3455,1312.3451,block3,f,1,0,30,30,34,1,0,bottom_right,friendly,no_target,0.4669,,,,,,,,,,,,,,,,,
,,,,,628441,f,y,r,y,11,0,2025-04-05_16h09.02.936,VisualSearchFaces,2024.2.4,Win32,59.88023952,,,,,,,,1313.3462,1313.4611,1313.4611,1315.4615,block3,j,1,0,31,31,14,1,1,bottom_right,friendly,neutral,0.5025,,,,,,,,,,,,,,,,,
,,,,,628441,f,y,r,y,11,0,2025-04-05_16h09.02.936,VisualSearchFaces,2024.2.4,Win32,59.88023952,,,,,,,,1316.4662,1316.5775,1316.5776,1318.5772,block3,f,1,0,32,32,20,1,0,centre,neutral,no_target,0.8505,,,,,,,,,,,,,,,,,
,,,,,628441,f,y,r,y,11,0,2025-04-05_16h09.02.936,VisualSearchFaces,2024.2.4,Win32,59.88023952,,,,,,,,1319.5816,1319.6942,1319.6942,1321.6935,block3,f,1,0,33,33,31,1,0,top_left,friendly,no_target,0.4854,,,,,,,,,,,,,,,,,
,,,,,628441,f,y,r,y,11,0,2025-04-05_16h09.02.936,VisualSearchFaces,2024.2.4,Win32,59.88023952,,,,,,,,1322.6988,1322.8099,1322.8099,1324.8104,block3,f,1,0,34,34,27,1,0,top_right,neutral,no_target,0.5354,,,,,,,,,,,,,,,,,
,,,,,628441,f,y,r,y,11,0,2025-04-05_16h09.02.936,VisualSearchFaces,2024.2.4,Win32,59.88023952,,,,,,,,1325.8113,1325.9268,1325.9268,1327.9265,block3,j,1,0,35,35,19,1,1,bottom_right,threatening,neutral,0.4335,,,,,,,,,,,,,,,,,
,,,,,628441,f,y,r,y,11,0,2025-04-05_16h09.02.936,VisualSearchFaces,2024.2.4,Win32,59.88023952,,,,,,,,1328.9315,1329.0429,1329.0429,1331.0431,block3,j,1,0,36,36,9,1,1,bottom_right,neutral,threatening,0.5015,,,,,,,,,,,,,,,,,
,,,,,628441,f,y,r,y,11,0,2025-04-05_16h09.02.936,VisualSearchFaces,2024.2.4,Win32,59.88023952,,,,,,,,1332.0475,1332.1428,1332.1429,1334.1426,block3,j,1,0,37,37,8,1,1,bottom_left,neutral,threatening,0.4673,,,,,,,,,,,,,,,,,
,,,,,628441,f,y,r,y,11,0,2025-04-05_16h09.02.936,VisualSearchFaces,2024.2.4,Win32,59.88023952,,,,,,,,1335.1433,1335.2426,1335.2427,1337.2421,block3,f,1,0,38,38,22,1,0,top_right,neutral,no_target,0.483,,,,,,,,,,,,,,,,,
,,,,,628441,f,y,r,y,11,0,2025-04-05_16h09.02.936,VisualSearchFaces,2024.2.4,Win32,59.88023952,,,,,,,,1338.2436,1338.3421,1338.3421,1340.3418,block3,j,1,0,39,39,2,1,1,top_right,neutral,friendly,0.4502,,,,,,,,,,,,,,,,,
,,,,,628441,f,y,r,y,11,0,2025-04-05_16h09.02.936,VisualSearchFaces,2024.2.4,Win32,59.88023952,,,,,,,,1341.3466,1341.4585,1341.4585,1343.4578,block3,j,0,1,0,40,31,1,0,top_left,friendly,no_target,0.5172,,,,,,,,,,,,,,,,,
,,,,,628441,f,y,r,y,11,0,2025-04-05_16h09.02.936,VisualSearchFaces,2024.2.4,Win32,59.88023952,,,,,,,,1344.4623,1344.5743,1344.5743,1346.5745,block3,j,1,1,1,41,2,1,1,top_right,neutral,friendly,0.6016,,,,,,,,,,,,,,,,,
,,,,,628441,f,y,r,y,11,0,2025-04-05_16h09.02.936,VisualSearchFaces,2024.2.4,Win32,59.88023952,,,,,,,,1347.5793,1347.6906,1347.6906,1349.6907,block3,f,1,1,2,42,35,1,0,centre,threatening,no_target,0.5513,,,,,,,,,,,,,,,,,
,,,,,628441,f,y,r,y,11,0,2025-04-05_16h09.02.936,VisualSearchFaces,2024.2.4,Win32,59.88023952,,,,,,,,1350.6922,1350.8069,1350.8069,1352.807,block3,j,1,1,3,43,4,1,1,bottom_right,neutral,friendly,0.5854,,,,,,,,,,,,,,,,,
,,,,,628441,f,y,r,y,11,0,2025-04-05_16h09.02.936,VisualSearchFaces,2024.2.4,Win32,59.88023952,,,,,,,,1353.8126,1353.9236,1353.9236,1355.9232,block3,j,0,1,4,44,24,1,0,bottom_right,neutral,no_target,0.5533,,,,,,,,,,,,,,,,,
,,,,,628441,f,y,r,y,11,0,2025-04-05_16h09.02.936,VisualSearchFaces,2024.2.4,Win32,59.88023952,,,,,,,,1356.928,1357.0398,1357.0399,1359.0395,block3,j,1,1,5,45,1,1,1,top_left,neutral,friendly,0.3854,,,,,,,,,,,,,,,,,
,,,,,628441,f,y,r,y,11,0,2025-04-05_16h09.02.936,VisualSearchFaces,2024.2.4,Win32,59.88023952,,,,,,,,1360.0439,1360.1558,1360.1559,1362.1556,block3,j,1,1,6,46,10,1,1,centre,friendly,neutral,0.5508,,,,,,,,,,,,,,,,,
,,,,,628441,f,y,r,y,11,0,2025-04-05_16h09.02.936,VisualSearchFaces,2024.2.4,Win32,59.88023952,,,,,,,,1363.1607,1363.2719,1363.2719,1365.2713,block3,f,1,1,7,47,26,1,0,top_left,neutral,no_target,0.456,,,,,,,,,,,,,,,,,
,,,,,628441,f,y,r,y,11,0,2025-04-05_16h09.02.936,VisualSearchFaces,2024.2.4,Win32,59.88023952,,,,,,,,1366.2764,1366.3885,1366.3885,1368.3883,block3,j,0,1,8,48,23,1,0,bottom_left,neutral,no_target,0.7691,,,,,,,,,,,,,,,,,
,,,,,628441,f,y,r,y,11,0,2025-04-05_16h09.02.936,VisualSearchFaces,2024.2.4,Win32,59.88023952,,,,,,,,1369.3889,1369.4881,1369.4882,1371.4879,block3,f,1,1,9,49,38,1,0,bottom_left,threatening,no_target,0.755,,,,,,,,,,,,,,,,,
,,,,,628441,f,y,r,y,11,0,2025-04-05_16h09.02.936,VisualSearchFaces,2024.2.4,Win32,59.88023952,,,,,,,,1372.4928,1372.6043,1372.6043,1374.604,block3,j,1,1,10,50,3,1,1,bottom_left,neutral,friendly,0.6524,,,,,,,,,,,,,,,,,
,,,,,628441,f,y,r,y,11,0,2025-04-05_16h09.02.936,VisualSearchFaces,2024.2.4,Win32,59.88023952,,,,,,,,1375.6087,1375.7043,1375.7043,1377.704,block3,j,1,1,11,51,7,1,1,top_right,neutral,threatening,0.4485,,,,,,,,,,,,,,,,,
,,,,,628441,f,y,r,y,11,0,2025-04-05_16h09.02.936,VisualSearchFaces,2024.2.4,Win32,59.88023952,,,,,,,,1378.7077,1378.8081,1378.8081,1380.8029,block3,j,1,1,12,52,17,1,1,top_right,threatening,neutral,0.514,,,,,,,,,,,,,,,,,
,,,,,628441,f,y,r,y,11,0,2025-04-05_16h09.02.936,VisualSearchFaces,2024.2.4,Win32,59.88023952,,,,,,,,1381.8056,1381.9198,1381.9198,1383.9198,block3,j,1,1,13,53,0,1,1,centre,neutral,friendly,0.4687,,,,,,,,,,,,,,,,,
,,,,,628441,f,y,r,y,11,0,2025-04-05_16h09.02.936,VisualSearchFaces,2024.2.4,Win32,59.88023952,,,,,,,,1384.9245,1385.0359,1385.0359,1387.0361,block3,j,1,1,14,54,18,1,1,bottom_left,threatening,neutral,0.6365,,,,,,,,,,,,,,,,,
,,,,,628441,f,y,r,y,11,0,2025-04-05_16h09.02.936,VisualSearchFaces,2024.2.4,Win32,59.88023952,,,,,,,,1388.0408,1388.1522,1388.1523,1390.1524,block3,j,1,1,15,55,14,1,1,bottom_right,friendly,neutral,0.4381,,,,,,,,,,,,,,,,,
,,,,,628441,f,y,r,y,11,0,2025-04-05_16h09.02.936,VisualSearchFaces,2024.2.4,Win32,59.88023952,,,,,,,,1391.1549,1391.2519,1391.2519,1393.252,block3,j,0,1,16,56,25,1,0,centre,neutral,no_target,0.7012,,,,,,,,,,,,,,,,,
,,,,,628441,f,y,r,y,11,0,2025-04-05_16h09.02.936,VisualSearchFaces,2024.2.4,Win32,59.88023952,,,,,,,,1394.2532,1394.3519,1394.352,1396.3517,block3,j,1,1,17,57,9,1,1,bottom_right,neutral,threatening,0.4546,,,,,,,,,,,,,,,,,
,,,,,628441,f,y,r,y,11,0,2025-04-05_16h09.02.936,VisualSearchFaces,2024.2.4,Win32,59.88023952,,,,,,,,1397.3559,1397.4677,1397.4677,1399.4678,block3,f,1,1,18,58,37,1,0,top_right,threatening,no_target,0.568,,,,,,,,,,,,,,,,,
,,,,,628441,f,y,r,y,11,0,2025-04-05_16h09.02.936,VisualSearchFaces,2024.2.4,Win32,59.88023952,,,,,,,,1400.4725,1400.5845,1400.5846,1402.5841,block3,j,1,1,19,59,16,1,1,top_left,threatening,neutral,0.5837,,,,,,,,,,,,,,,,,
,,,,,628441,f,y,r,y,11,0,2025-04-05_16h09.02.936,VisualSearchFaces,2024.2.4,Win32,59.88023952,,,,,,,,1403.5892,1403.7004,1403.7004,1405.7004,block3,f,1,1,20,60,27,1,0,top_right,neutral,no_target,0.5361,,,,,,,,,,,,,,,,,
,,,,,628441,f,y,r,y,11,0,2025-04-05_16h09.02.936,VisualSearchFaces,2024.2.4,Win32,59.88023952,,,,,,,,1406.7046,1406.8168,1406.8169,1408.8166,block3,j,1,1,21,61,8,1,1,bottom_left,neutral,threatening,0.4877,,,,,,,,,,,,,,,,,
,,,,,628441,f,y,r,y,11,0,2025-04-05_16h09.02.936,VisualSearchFaces,2024.2.4,Win32,59.88023952,,,,,,,,1409.8214,1409.9333,1409.9333,1411.933,block3,f,1,1,22,62,20,1,0,centre,neutral,no_target,0.5208,,,,,,,,,,,,,,,,,
,,,,,628441,f,y,r,y,11,0,2025-04-05_16h09.02.936,VisualSearchFaces,2024.2.4,Win32,59.88023952,,,,,,,,1412.9375,1413.0492,1413.0493,1415.0495,block3,f,1,1,23,63,33,1,0,bottom_left,friendly,no_target,0.7385,,,,,,,,,,,,,,,,,
,,,,,628441,f,y,r,y,11,0,2025-04-05_16h09.02.936,VisualSearchFaces,2024.2.4,Win32,59.88023952,,,,,,,,1416.0538,1416.1656,1416.1656,1418.1656,block3,f,1,1,24,64,21,1,0,top_left,neutral,no_target,0.4009,,,,,,,,,,,,,,,,,
,,,,,628441,f,y,r,y,11,0,2025-04-05_16h09.02.936,VisualSearchFaces,2024.2.4,Win32,59.88023952,,,,,,,,1419.1701,1419.2703,1419.2703,1421.2651,block3,f,1,1,25,65,32,1,0,top_right,friendly,no_target,0.5136,,,,,,,,,,,,,,,,,
,,,,,628441,f,y,r,y,11,0,2025-04-05_16h09.02.936,VisualSearchFaces,2024.2.4,Win32,59.88023952,,,,,,,,1422.2698,1422.3815,1422.3815,1424.3815,block3,j,1,1,26,66,15,1,1,centre,threatening,neutral,0.5178,,,,,,,,,,,,,,,,,
,,,,,628441,f,y,r,y,11,0,2025-04-05_16h09.02.936,VisualSearchFaces,2024.2.4,Win32,59.88023952,,,,,,,,1425.3828,1425.4977,1425.4977,1427.4974,block3,f,1,1,27,67,36,1,0,top_left,threatening,no_target,0.5515,,,,,,,,,,,,,,,,,
,,,,,628441,f,y,r,y,11,0,2025-04-05_16h09.02.936,VisualSearchFaces,2024.2.4,Win32,59.88023952,,,,,,,,1428.5023,1428.6139,1428.614,1430.6141,block3,f,1,1,28,68,30,1,0,centre,friendly,no_target,0.5348,,,,,,,,,,,,,,,,,
,,,,,628441,f,y,r,y,11,0,2025-04-05_16h09.02.936,VisualSearchFaces,2024.2.4,Win32,59.88023952,,,,,,,,1431.6183,1431.7302,1431.7302,1433.7302,block3,j,1,1,29,69,5,1,1,centre,neutral,threatening,0.4853,,,,,,,,,,,,,,,,,
,,,,,628441,f,y,r,y,11,0,2025-04-05_16h09.02.936,VisualSearchFaces,2024.2.4,Win32,59.88023952,,,,,,,,1434.7348,1434.8466,1434.8467,1436.8458,block3,f,1,1,30,70,29,1,0,bottom_right,neutral,no_target,0.3681,,,,,,,,,,,,,,,,,
,,,,,628441,f,y,r,y,11,0,2025-04-05_16h09.02.936,VisualSearchFaces,2024.2.4,Win32,59.88023952,,,,,,,,1437.8508,1437.9629,1437.9629,1439.9629,block3,f,1,1,31,71,39,1,0,bottom_right,threatening,no_target,0.5003,,,,,,,,,,,,,,,,,
,,,,,628441,f,y,r,y,11,0,2025-04-05_16h09.02.936,VisualSearchFaces,2024.2.4,Win32,59.88023952,,,,,,,,1440.9642,1441.079,1441.079,1443.0792,block3,j,1,1,32,72,12,1,1,top_right,friendly,neutral,0.5172,,,,,,,,,,,,,,,,,
,,,,,628441,f,y,r,y,11,0,2025-04-05_16h09.02.936,VisualSearchFaces,2024.2.4,Win32,59.88023952,,,,,,,,1444.0835,1444.1959,1444.1959,1446.1954,block3,f,1,1,33,73,34,1,0,bottom_right,friendly,no_target,0.3871,,,,,,,,,,,,,,,,,
,,,,,628441,f,y,r,y,11,0,2025-04-05_16h09.02.936,VisualSearchFaces,2024.2.4,Win32,59.88023952,,,,,,,,1447.2002,1447.3121,1447.3121,1449.3117,block3,f,0,1,34,74,13,1,1,bottom_left,friendly,neutral,0.4853,,,,,,,,,,,,,,,,,
,,,,,628441,f,y,r,y,11,0,2025-04-05_16h09.02.936,VisualSearchFaces,2024.2.4,Win32,59.88023952,,,,,,,,1450.3166,1450.4278,1450.4278,1452.4274,block3,f,1,1,35,75,22,1,0,top_right,neutral,no_target,0.5364,,,,,,,,,,,,,,,,,
,,,,,628441,f,y,r,y,11,0,2025-04-05_16h09.02.936,VisualSearchFaces,2024.2.4,Win32,59.88023952,,,,,,,,1453.4319,1453.5284,1453.5284,1455.5277,block3,j,1,1,36,76,19,1,1,bottom_right,threatening,neutral,0.5062,,,,,,,,,,,,,,,,,
,,,,,628441,f,y,r,y,11,0,2025-04-05_16h09.02.936,VisualSearchFaces,2024.2.4,Win32,59.88023952,,,,,,,,1456.5284,1456.6274,1456.6274,1458.6272,block3,j,1,1,37,77,11,1,1,top_left,friendly,neutral,0.6532,,,,,,,,,,,,,,,,,
,,,,,628441,f,y,r,y,11,0,2025-04-05_16h09.02.936,VisualSearchFaces,2024.2.4,Win32,59.88023952,,,,,,,,1459.6311,1459.7435,1459.7435,1461.7436,block3,f,1,1,38,78,28,1,0,bottom_left,neutral,no_target,0.5401,,,,,,,,,,,,,,,,,
,,,,,628441,f,y,r,y,11,0,2025-04-05_16h09.02.936,VisualSearchFaces,2024.2.4,Win32,59.88023952,,,,,,,,1462.7485,1462.8601,1462.8602,1464.8598,block3,j,1,1,39,79,6,1,1,top_left,neutral,threatening,0.4042,,,,,,,,,,,,,,,,,
,,,,,628441,f,y,r,y,11,0,2025-04-05_16h09.02.936,VisualSearchFaces,2024.2.4,Win32,59.88023952,,,1498.0796,1499.7387,space,1.6325,,1500.7413,1500.8546,1500.8547,1502.8548,block4,j,1,0,0,0,5,1,1,centre,neutral,threatening,0.4507,,1464.8639,1498.0725,space,33.181,,,,,,,,,,,,
,,,,,628441,f,y,r,y,11,0,2025-04-05_16h09.02.936,VisualSearchFaces,2024.2.4,Win32,59.88023952,,,,,,,,1503.8569,1503.9709,1503.971,1505.9707,block4,f,1,0,1,1,29,1,0,bottom_right,neutral,no_target,0.5554,,,,,,,,,,,,,,,,,
,,,,,628441,f,y,r,y,11,0,2025-04-05_16h09.02.936,VisualSearchFaces,2024.2.4,Win32,59.88023952,,,,,,,,1506.9734,1507.0872,1507.0872,1509.0871,block4,f,1,0,2,2,37,1,0,top_right,threatening,no_target,0.539,,,,,,,,,,,,,,,,,
,,,,,628441,f,y,r,y,11,0,2025-04-05_16h09.02.936,VisualSearchFaces,2024.2.4,Win32,59.88023952,,,,,,,,1510.0895,1510.1871,1510.1871,1512.1872,block4,j,1,0,3,3,0,1,1,centre,neutral,friendly,0.4172,,,,,,,,,,,,,,,,,
,,,,,628441,f,y,r,y,11,0,2025-04-05_16h09.02.936,VisualSearchFaces,2024.2.4,Win32,59.88023952,,,,,,,,1513.1886,1513.2868,1513.2868,1515.2863,block4,j,1,0,4,4,3,1,1,bottom_left,neutral,friendly,0.4833,,,,,,,,,,,,,,,,,
,,,,,628441,f,y,r,y,11,0,2025-04-05_16h09.02.936,VisualSearchFaces,2024.2.4,Win32,59.88023952,,,,,,,,1516.2885,1516.4031,1516.4031,1518.4028,block4,f,1,0,5,5,35,1,0,centre,threatening,no_target,0.5349,,,,,,,,,,,,,,,,,
,,,,,628441,f,y,r,y,11,0,2025-04-05_16h09.02.936,VisualSearchFaces,2024.2.4,Win32,59.88023952,,,,,,,,1519.4055,1519.5194,1519.5194,1521.5189,block4,j,1,0,6,6,6,1,1,top_left,neutral,threatening,0.4685,,,,,,,,,,,,,,,,,
,,,,,628441,f,y,r,y,11,0,2025-04-05_16h09.02.936,VisualSearchFaces,2024.2.4,Win32,59.88023952,,,,,,,,1522.522,1522.6357,1522.6357,1524.6355,block4,f,0,0,7,7,15,1,1,centre,threatening,neutral,0.5895,,,,,,,,,,,,,,,,,
,,,,,628441,f,y,r,y,11,0,2025-04-05_16h09.02.936,VisualSearchFaces,2024.2.4,Win32,59.88023952,,,,,,,,1525.6376,1525.752,1525.7521,1527.7515,block4,j,1,0,8,8,13,1,1,bottom_left,friendly,neutral,0.4503,,,,,,,,,,,,,,,,,
,,,,,628441,f,y,r,y,11,0,2025-04-05_16h09.02.936,VisualSearchFaces,2024.2.4,Win32,59.88023952,,,,,,,,1528.754,1528.868,1528.8681,1530.8677,block4,f,0,0,9,9,12,1,1,top_right,friendly,neutral,0.4841,,,,,,,,,,,,,,,,,
,,,,,628441,f,y,r,y,11,0,2025-04-05_16h09.02.936,VisualSearchFaces,2024.2.4,Win32,59.88023952,,,,,,,,1531.8696,1531.9843,1531.9843,1533.9843,block4,j,1,0,10,10,9,1,1,bottom_right,neutral,threatening,0.4338,,,,,,,,,,,,,,,,,
,,,,,628441,f,y,r,y,11,0,2025-04-05_16h09.02.936,VisualSearchFaces,2024.2.4,Win32,59.88023952,,,,,,,,1534.9982,1535.1015,1535.1015,1537.1001,block4,j,1,0,11,11,19,1,1,bottom_right,threatening,neutral,0.431,,,,,,,,,,,,,,,,,
,,,,,628441,f,y,r,y,11,0,2025-04-05_16h09.02.936,VisualSearchFaces,2024.2.4,Win32,59.88023952,,,,,,,,1538.1018,1538.2171,1538.2172,1540.2166,block4,f,1,0,12,12,27,1,0,top_right,neutral,no_target,0.5163,,,,,,,,,,,,,,,,,
,,,,,628441,f,y,r,y,11,0,2025-04-05_16h09.02.936,VisualSearchFaces,2024.2.4,Win32,59.88023952,,,,,,,,1541.2204,1541.3334,1541.3334,1543.3332,block4,j,1,0,13,13,4,1,1,bottom_right,neutral,friendly,0.468,,,,,,,,,,,,,,,,,
,,,,,628441,f,y,r,y,11,0,2025-04-05_16h09.02.936,VisualSearchFaces,2024.2.4,Win32,59.88023952,,,,,,,,1544.3344,1544.4502,1544.4503,1546.4494,block4,f,1,0,14,14,31,1,0,top_left,friendly,no_target,0.9002,,,,,,,,,,,,,,,,,
,,,,,628441,f,y,r,y,11,0,2025-04-05_16h09.02.936,VisualSearchFaces,2024.2.4,Win32,59.88023952,,,,,,,,1547.4511,1547.566,1547.5661,1549.5655,block4,j,1,0,15,15,1,1,1,top_left,neutral,friendly,0.5019,,,,,,,,,,,,,,,,,
,,,,,628441,f,y,r,y,11,0,2025-04-05_16h09.02.936,VisualSearchFaces,2024.2.4,Win32,59.88023952,,,,,,,,1550.5677,1550.6821,1550.6822,1552.6819,block4,j,0,0,16,16,32,1,0,top_right,friendly,no_target,0.75,,,,,,,,,,,,,,,,,
,,,,,628441,f,y,r,y,11,0,2025-04-05_16h09.02.936,VisualSearchFaces,2024.2.4,Win32,59.88023952,,,,,,,,1553.684,1553.787,1553.787,1555.7818,block4,f,1,0,17,17,39,1,0,bottom_right,threatening,no_target,0.5287,,,,,,,,,,,,,,,,,
,,,,,628441,f,y,r,y,11,0,2025-04-05_16h09.02.936,VisualSearchFaces,2024.2.4,Win32,59.88023952,,,,,,,,1556.7835,1556.8814,1556.8814,1558.8907,block4,j,1,0,18,18,16,1,1,top_left,threatening,neutral,0.6336,,,,,,,,,,,,,,,,,
,,,,,628441,f,y,r,y,11,0,2025-04-05_16h09.02.936,VisualSearchFaces,2024.2.4,Win32,59.88023952,,,,,,,,1559.883,1559.9822,1559.9822,1561.9804,block4,f,1,0,19,19,20,1,0,centre,neutral,no_target,0.549,,,,,,,,,,,,,,,,,
,,,,,628441,f,y,r,y,11,0,2025-04-05_16h09.02.936,VisualSearchFaces,2024.2.4,Win32,59.88023952,,,,,,,,1562.9828,1563.0974,1563.0974,1565.097,block4,f,1,0,20,20,34,1,0,bottom_right,friendly,no_target,0.638,,,,,,,,,,,,,,,,,
,,,,,628441,f,y,r,y,11,0,2025-04-05_16h09.02.936,VisualSearchFaces,2024.2.4,Win32,59.88023952,,,,,,,,1566.0989,1566.2136,1566.2137,1568.2131,block4,f,1,0,21,21,33,1,0,bottom_left,friendly,no_target,0.5337,,,,,,,,,,,,,,,,,
,,,,,628441,f,y,r,y,11,0,2025-04-05_16h09.02.936,VisualSearchFaces,2024.2.4,Win32,59.88023952,,,,,,,,1569.2155,1569.33,1569.33,1571.3297,block4,f,1,0,22,22,36,1,0,top_left,threatening,no_target,0.4667,,,,,,,,,,,,,,,,,
,,,,,628441,f,y,r,y,11,0,2025-04-05_16h09.02.936,VisualSearchFaces,2024.2.4,Win32,59.88023952,,,,,,,,1572.3313,1572.4461,1572.4461,1574.4459,block4,j,1,0,23,23,8,1,1,bottom_left,neutral,threatening,0.5358,,,,,,,,,,,,,,,,,
,,,,,628441,f,y,r,y,11,0,2025-04-05_16h09.02.936,VisualSearchFaces,2024.2.4,Win32,59.88023952,,,,,,,,1575.4472,1575.5587,1575.5587,1577.562,block4,f,1,0,24,24,21,1,0,top_left,neutral,no_target,0.6003,,,,,,,,,,,,,,,,,
,,,,,628441,f,y,r,y,11,0,2025-04-05_16h09.02.936,VisualSearchFaces,2024.2.4,Win32,59.88023952,,,,,,,,1578.5502,1578.6619,1578.6619,1580.6616,block4,f,1,0,25,25,26,1,0,top_left,neutral,no_target,0.4333,,,,,,,,,,,,,,,,,
,,,,,628441,f,y,r,y,11,0,2025-04-05_16h09.02.936,VisualSearchFaces,2024.2.4,Win32,59.88023952,,,,,,,,1581.6636,1581.7621,1581.7621,1583.7615,block4,f,1,0,26,26,38,1,0,bottom_left,threatening,no_target,0.5673,,,,,,,,,,,,,,,,,
,,,,,628441,f,y,r,y,11,0,2025-04-05_16h09.02.936,VisualSearchFaces,2024.2.4,Win32,59.88023952,,,,,,,,1584.763,1584.8779,1584.878,1586.8773,block4,j,1,0,27,27,11,1,1,top_left,friendly,neutral,0.5502,,,,,,,,,,,,,,,,,
,,,,,628441,f,y,r,y,11,0,2025-04-05_16h09.02.936,VisualSearchFaces,2024.2.4,Win32,59.88023952,,,,,,,,1587.8791,1587.9774,1587.9774,1589.9774,block4,f,1,0,28,28,23,1,0,bottom_left,neutral,no_target,0.5065,,,,,,,,,,,,,,,,,
,,,,,628441,f,y,r,y,11,0,2025-04-05_16h09.02.936,VisualSearchFaces,2024.2.4,Win32,59.88023952,,,,,,,,1590.9797,1591.094,1591.094,1593.0936,block4,f,1,0,29,29,22,1,0,top_right,neutral,no_target,0.4168,,,,,,,,,,,,,,,,,
,,,,,628441,f,y,r,y,11,0,2025-04-05_16h09.02.936,VisualSearchFaces,2024.2.4,Win32,59.88023952,,,,,,,,1594.0957,1594.2102,1594.2102,1596.2099,block4,j,1,0,30,30,2,1,1,top_right,neutral,friendly,0.4332,,,,,,,,,,,,,,,,,
,,,,,628441,f,y,r,y,11,0,2025-04-05_16h09.02.936,VisualSearchFaces,2024.2.4,Win32,59.88023952,,,,,,,,1597.2121,1597.3266,1597.3266,1599.3261,block4,f,1,0,31,31,24,1,0,bottom_right,neutral,no_target,0.4332,,,,,,,,,,,,,,,,,
,,,,,628441,f,y,r,y,11,0,2025-04-05_16h09.02.936,VisualSearchFaces,2024.2.4,Win32,59.88023952,,,,,,,,1600.3317,1600.4426,1600.4427,1602.4426,block4,j,1,0,32,32,17,1,1,top_right,threatening,neutral,0.4336,,,,,,,,,,,,,,,,,
,,,,,628441,f,y,r,y,11,0,2025-04-05_16h09.02.936,VisualSearchFaces,2024.2.4,Win32,59.88023952,,,,,,,,1603.4454,1603.5589,1603.559,1605.5587,block4,j,1,0,33,33,10,1,1,centre,friendly,neutral,0.5038,,,,,,,,,,,,,,,,,
,,,,,628441,f,y,r,y,11,0,2025-04-05_16h09.02.936,VisualSearchFaces,2024.2.4,Win32,59.88023952,,,,,,,,1606.5602,1606.6752,1606.6753,1608.6749,block4,f,1,0,34,34,30,1,0,centre,friendly,no_target,0.4359,,,,,,,,,,,,,,,,,
,,,,,628441,f,y,r,y,11,0,2025-04-05_16h09.02.936,VisualSearchFaces,2024.2.4,Win32,59.88023952,,,,,,,,1609.6773,1609.7912,1609.7912,1611.7914,block4,j,1,0,35,35,18,1,1,bottom_left,threatening,neutral,0.4673,,,,,,,,,,,,,,,,,
,,,,,628441,f,y,r,y,11,0,2025-04-05_16h09.02.936,VisualSearchFaces,2024.2.4,Win32,59.88023952,,,,,,,,1612.7933,1612.8913,1612.8913,1614.8906,block4,f,1,0,36,36,25,1,0,centre,neutral,no_target,0.551,,,,,,,,,,,,,,,,,
,,,,,628441,f,y,r,y,11,0,2025-04-05_16h09.02.936,VisualSearchFaces,2024.2.4,Win32,59.88023952,,,,,,,,1615.8929,1616.0078,1616.0079,1618.007,block4,j,1,0,37,37,14,1,1,bottom_right,friendly,neutral,0.4651,,,,,,,,,,,,,,,,,
,,,,,628441,f,y,r,y,11,0,2025-04-05_16h09.02.936,VisualSearchFaces,2024.2.4,Win32,59.88023952,,,,,,,,1619.0104,1619.1238,1619.1238,1621.1235,block4,f,1,0,38,38,28,1,0,bottom_left,neutral,no_target,0.467,,,,,,,,,,,,,,,,,
,,,,,628441,f,y,r,y,11,0,2025-04-05_16h09.02.936,VisualSearchFaces,2024.2.4,Win32,59.88023952,,,,,,,,1622.1254,1622.2402,1622.2402,1624.2401,block4,j,1,0,39,39,7,1,1,top_right,neutral,threatening,0.3897,,,,,,,,,,,,,,,,,
,,,,,628441,f,y,r,y,11,0,2025-04-05_16h09.02.936,VisualSearchFaces,2024.2.4,Win32,59.88023952,,,,,,,,1625.2407,1625.3561,1625.3561,1627.3559,block4,j,1,1,0,40,14,1,1,bottom_right,friendly,neutral,0.4004,,,,,,,,,,,,,,,,,
,,,,,628441,f,y,r,y,11,0,2025-04-05_16h09.02.936,VisualSearchFaces,2024.2.4,Win32,59.88023952,,,,,,,,1628.3585,1628.4726,1628.4726,1630.4724,block4,j,0,1,1,41,26,1,0,top_left,neutral,no_target,0.5887,,,,,,,,,,,,,,,,,
,,,,,628441,f,y,r,y,11,0,2025-04-05_16h09.02.936,VisualSearchFaces,2024.2.4,Win32,59.88023952,,,,,,,,1631.4743,1631.5722,1631.5722,1633.5719,block4,f,1,1,2,42,30,1,0,centre,friendly,no_target,0.7041,,,,,,,,,,,,,,,,,
,,,,,628441,f,y,r,y,11,0,2025-04-05_16h09.02.936,VisualSearchFaces,2024.2.4,Win32,59.88023952,,,,,,,,1634.5746,1634.6885,1634.6885,1636.6882,block4,j,1,1,3,43,16,1,1,top_left,threatening,neutral,0.5174,,,,,,,,,,,,,,,,,
,,,,,628441,f,y,r,y,11,0,2025-04-05_16h09.02.936,VisualSearchFaces,2024.2.4,Win32,59.88023952,,,,,,,,1637.69,1637.8047,1637.8047,1639.8047,block4,j,1,1,4,44,19,1,1,bottom_right,threatening,neutral,0.5892,,,,,,,,,,,,,,,,,
,,,,,628441,f,y,r,y,11,0,2025-04-05_16h09.02.936,VisualSearchFaces,2024.2.4,Win32,59.88023952,,,,,,,,1640.8072,1640.9212,1640.9212,1642.9209,block4,j,1,1,5,45,10,1,1,centre,friendly,neutral,0.5169,,,,,,,,,,,,,,,,,
,,,,,628441,f,y,r,y,11,0,2025-04-05_16h09.02.936,VisualSearchFaces,2024.2.4,Win32,59.88023952,,,,,,,,1643.9228,1644.0371,1644.0372,1646.0368,block4,j,1,1,6,46,15,1,1,centre,threatening,neutral,0.417,,,,,,,,,,,,,,,,,
,,,,,628441,f,y,r,y,11,0,2025-04-05_16h09.02.936,VisualSearchFaces,2024.2.4,Win32,59.88023952,,,,,,,,1647.0398,1647.1537,1647.1538,1649.1534,block4,f,1,1,7,47,29,1,0,bottom_right,neutral,no_target,0.5048,,,,,,,,,,,,,,,,,
,,,,,628441,f,y,r,y,11,0,2025-04-05_16h09.02.936,VisualSearchFaces,2024.2.4,Win32,59.88023952,,,,,,,,1650.1558,1650.2699,1650.2699,1652.2698,block4,j,1,1,8,48,2,1,1,top_right,neutral,friendly,0.508,,,,,,,,,,,,,,,,,
,,,,,628441,f,y,r,y,11,0,2025-04-05_16h09.02.936,VisualSearchFaces,2024.2.4,Win32,59.88023952,,,,,,,,1653.2716,1653.3863,1653.3864,1655.3858,block4,f,1,1,9,49,21,1,0,top_left,neutral,no_target,0.437,,,,,,,,,,,,,,,,,
,,,,,628441,f,y,r,y,11,0,2025-04-05_16h09.02.936,VisualSearchFaces,2024.2.4,Win32,59.88023952,,,,,,,,1656.388,1656.5026,1656.5026,1658.5023,block4,f,1,1,10,50,39,1,0,bottom_right,threatening,no_target,0.5833,,,,,,,,,,,,,,,,,
,,,,,628441,f,y,r,y,11,0,2025-04-05_16h09.02.936,VisualSearchFaces,2024.2.4,Win32,59.88023952,,,,,,,,1659.5042,1659.6022,1659.6022,1661.602,block4,f,1,1,11,51,35,1,0,centre,threatening,no_target,0.4962,,,,,,,,,,,,,,,,,
,,,,,628441,f,y,r,y,11,0,2025-04-05_16h09.02.936,VisualSearchFaces,2024.2.4,Win32,59.88023952,,,,,,,,1662.6042,1662.7184,1662.7184,1664.7182,block4,j,1,1,12,52,6,1,1,top_left,neutral,threatening,0.3038,,,,,,,,,,,,,,,,,
,,,,,628441,f,y,r,y,11,0,2025-04-05_16h09.02.936,VisualSearchFaces,2024.2.4,Win32,59.88023952,,,,,,,,1665.7199,1665.8183,1665.8183,1667.8178,block4,f,1,1,13,53,37,1,0,top_right,threatening,no_target,0.5166,,,,,,,,,,,,,,,,,
,,,,,628441,f,y,r,y,11,0,2025-04-05_16h09.02.936,VisualSearchFaces,2024.2.4,Win32,59.88023952,,,,,,,,1668.8195,1668.9344,1668.9344,1670.9342,block4,f,1,1,14,54,36,1,0,top_left,threatening,no_target,0.5336,,,,,,,,,,,,,,,,,
,,,,,628441,f,y,r,y,11,0,2025-04-05_16h09.02.936,VisualSearchFaces,2024.2.4,Win32,59.88023952,,,,,,,,1671.9363,1672.0391,1672.0391,1674.0337,block4,j,1,1,15,55,0,1,1,centre,neutral,friendly,0.5145,,,,,,,,,,,,,,,,,
,,,,,628441,f,y,r,y,11,0,2025-04-05_16h09.02.936,VisualSearchFaces,2024.2.4,Win32,59.88023952,,,,,,,,1675.0357,1675.1335,1675.1335,1677.1334,block4,f,0,1,16,56,18,1,1,bottom_left,threatening,neutral,0.3504,,,,,,,,,,,,,,,,,
,,,,,628441,f,y,r,y,11,0,2025-04-05_16h09.02.936,VisualSearchFaces,2024.2.4,Win32,59.88023952,,,,,,,,1678.1357,1678.2498,1678.2498,1680.2493,block4,f,1,1,17,57,38,1,0,bottom_left,threatening,no_target,0.5002,,,,,,,,,,,,,,,,,
,,,,,628441,f,y,r,y,11,0,2025-04-05_16h09.02.936,VisualSearchFaces,2024.2.4,Win32,59.88023952,,,,,,,,1681.2519,1681.3659,1681.366,1683.3658,block4,j,0,1,18,58,20,1,0,centre,neutral,no_target,0.3838,,,,,,,,,,,,,,,,,
,,,,,628441,f,y,r,y,11,0,2025-04-05_16h09.02.936,VisualSearchFaces,2024.2.4,Win32,59.88023952,,,,,,,,1684.3682,1684.4826,1684.4826,1686.4823,block4,f,1,1,19,59,27,1,0,top_right,neutral,no_target,0.4391,,,,,,,,,,,,,,,,,
,,,,,628441,f,y,r,y,11,0,2025-04-05_16h09.02.936,VisualSearchFaces,2024.2.4,Win32,59.88023952,,,,,,,,1687.4778,1687.582,1687.582,1689.5819,block4,j,1,1,20,60,9,1,1,bottom_right,neutral,threatening,0.4175,,,,,,,,,,,,,,,,,
,,,,,628441,f,y,r,y,11,0,2025-04-05_16h09.02.936,VisualSearchFaces,2024.2.4,Win32,59.88023952,,,,,,,,1690.5837,1690.6841,1690.6841,1692.6812,block4,j,1,1,21,61,7,1,1,top_right,neutral,threatening,0.4649,,,,,,,,,,,,,,,,,
,,,,,628441,f,y,r,y,11,0,2025-04-05_16h09.02.936,VisualSearchFaces,2024.2.4,Win32,59.88023952,,,,,,,,1693.6836,1693.7976,1693.7976,1695.7977,block4,j,1,1,22,62,8,1,1,bottom_left,neutral,threatening,0.4504,,,,,,,,,,,,,,,,,
,,,,,628441,f,y,r,y,11,0,2025-04-05_16h09.02.936,VisualSearchFaces,2024.2.4,Win32,59.88023952,,,,,,,,1696.7992,1696.9141,1696.9141,1698.914,block4,j,1,1,23,63,3,1,1,bottom_left,neutral,friendly,0.4502,,,,,,,,,,,,,,,,,
,,,,,628441,f,y,r,y,11,0,2025-04-05_16h09.02.936,VisualSearchFaces,2024.2.4,Win32,59.88023952,,,,,,,,1699.9165,1700.0304,1700.0304,1702.0302,block4,j,1,1,24,64,13,1,1,bottom_left,friendly,neutral,0.4002,,,,,,,,,,,,,,,,,
,,,,,628441,f,y,r,y,11,0,2025-04-05_16h09.02.936,VisualSearchFaces,2024.2.4,Win32,59.88023952,,,,,,,,1703.0332,1703.1352,1703.1352,1705.1296,block4,f,1,1,25,65,28,1,0,bottom_left,neutral,no_target,0.5788,,,,,,,,,,,,,,,,,
,,,,,628441,f,y,r,y,11,0,2025-04-05_16h09.02.936,VisualSearchFaces,2024.2.4,Win32,59.88023952,,,,,,,,1706.1321,1706.2464,1706.2464,1708.2462,block4,f,1,1,26,66,23,1,0,bottom_left,neutral,no_target,0.4511,,,,,,,,,,,,,,,,,
,,,,,628441,f,y,r,y,11,0,2025-04-05_16h09.02.936,VisualSearchFaces,2024.2.4,Win32,59.88023952,,,,,,,,1709.2484,1709.3624,1709.3624,1711.3625,block4,j,1,1,27,67,1,1,1,top_left,neutral,friendly,0.4669,,,,,,,,,,,,,,,,,
,,,,,628441,f,y,r,y,11,0,2025-04-05_16h09.02.936,VisualSearchFaces,2024.2.4,Win32,59.88023952,,,,,,,,1712.3643,1712.4789,1712.4789,1714.4788,block4,f,1,1,28,68,34,1,0,bottom_right,friendly,no_target,0.5535,,,,,,,,,,,,,,,,,
,,,,,628441,f,y,r,y,11,0,2025-04-05_16h09.02.936,VisualSearchFaces,2024.2.4,Win32,59.88023952,,,,,,,,1715.4809,1715.5951,1715.5951,1717.5951,block4,f,1,1,29,69,22,1,0,top_right,neutral,no_target,0.534,,,,,,,,,,,,,,,,,
,,,,,628441,f,y,r,y,11,0,2025-04-05_16h09.02.936,VisualSearchFaces,2024.2.4,Win32,59.88023952,,,,,,,,1718.5977,1718.7116,1718.7116,1720.7114,block4,f,1,1,30,70,32,1,0,top_right,friendly,no_target,0.5006,,,,,,,,,,,,,,,,,
,,,,,628441,f,y,r,y,11,0,2025-04-05_16h09.02.936,VisualSearchFaces,2024.2.4,Win32,59.88023952,,,,,,,,1721.7126,1721.8279,1721.8279,1723.8274,block4,j,1,1,31,71,12,1,1,top_right,friendly,neutral,0.4384,,,,,,,,,,,,,,,,,
,,,,,628441,f,y,r,y,11,0,2025-04-05_16h09.02.936,VisualSearchFaces,2024.2.4,Win32,59.88023952,,,,,,,,1724.8303,1724.9443,1724.9443,1726.944,block4,f,1,1,32,72,33,1,0,bottom_left,friendly,no_target,0.4494,,,,,,,,,,,,,,,,,
,,,,,628441,f,y,r,y,11,0,2025-04-05_16h09.02.936,VisualSearchFaces,2024.2.4,Win32,59.88023952,,,,,,,,1727.9464,1728.0442,1728.0442,1730.0435,block4,j,1,1,33,73,4,1,1,bottom_right,neutral,friendly,0.4495,,,,,,,,,,,,,,,,,
,,,,,628441,f,y,r,y,11,0,2025-04-05_16h09.02.936,VisualSearchFaces,2024.2.4,Win32,59.88023952,,,,,,,,1731.0456,1731.1601,1731.1601,1733.1598,block4,f,1,1,34,74,24,1,0,bottom_right,neutral,no_target,0.4056,,,,,,,,,,,,,,,,,
,,,,,628441,f,y,r,y,11,0,2025-04-05_16h09.02.936,VisualSearchFaces,2024.2.4,Win32,59.88023952,,,,,,,,1734.1623,1734.276,1734.276,1736.276,block4,j,1,1,35,75,17,1,1,top_right,threatening,neutral,0.3872,,,,,,,,,,,,,,,,,
,,,,,628441,f,y,r,y,11,0,2025-04-05_16h09.02.936,VisualSearchFaces,2024.2.4,Win32,59.88023952,,,,,,,,1737.2777,1737.3926,1737.3926,1739.3921,block4,j,1,1,36,76,5,1,1,centre,neutral,threatening,0.5,,,,,,,,,,,,,,,,,
,,,,,628441,f,y,r,y,11,0,2025-04-05_16h09.02.936,VisualSearchFaces,2024.2.4,Win32,59.88023952,,,,,,,,1740.3943,1740.5089,1740.509,1742.5085,block4,f,1,1,37,77,25,1,0,centre,neutral,no_target,0.3666,,,,,,,,,,,,,,,,,
,,,,,628441,f,y,r,y,11,0,2025-04-05_16h09.02.936,VisualSearchFaces,2024.2.4,Win32,59.88023952,,,,,,,,1743.5107,1743.6249,1743.6249,1745.6249,block4,j,1,1,38,78,11,1,1,top_left,friendly,neutral,0.4342,,,,,,,,,,,,,,,,,
,,,,,628441,f,y,r,y,11,0,2025-04-05_16h09.02.936,VisualSearchFaces,2024.2.4,Win32,59.88023952,,,,,,,,1746.6271,1746.7249,1746.7249,1748.7244,block4,f,1,1,39,79,31,1,0,top_left,friendly,no_target,0.6163,,,,,,,,,,,,,,,,,
,,,,,628441,f,y,r,y,11,0,2025-04-05_16h09.02.936,VisualSearchFaces,2024.2.4,Win32,59.88023952,,,,,,,,,,,,,,,,,,,,,,,,,,1748.7269,1761.6246,space,12.8712,,1761.6274,1775.4729,Smileys,1,[1775.472600000024],[1775.472600000024],,,,,
,,,,,628441,f,y,r,y,11,0,2025-04-05_16h09.02.936,VisualSearchFaces,2024.2.4,Win32,59.88023952,,,,,,,,,,,,,,,,,,,,,,,,,,,,,,,,,,,,,1775.4746,1795.887,space,20.3955,
