Welcome.started,Welcome.stopped,keyboard_space_welcome.keys,keyboard_space_welcome.rt,keyboard_space_welcome.duration,participant,gender,(corrected) normal vision,handedness,exp vse,session,skip_intro,date,expName,psychopyVersion,OS,frameRate,stimulus_exposure.started,stimulus_exposure.stopped,Block_intro.started,Block_intro.stopped,keyboard_space.keys,keyboard_space.rt,keyboard_space.duration,Stimulus.started,Stimulus.stopped,fixation_ending.started,fixation_ending.stopped,block_id,keyboard_response.keys,keyboard_response.corr,keyboard_response.rt,keyboard_response.duration,trials.thisRepN,trials.thisTrialN,trials.thisN,trials.thisIndex,trials.ran,target_presence,target_position,background_emotion,target_emotion,Block_outro.started,Block_outro.stopped,keyboard_space_end.keys,keyboard_space_end.rt,keyboard_space_end.duration,Question_about_stimulus.started,Question_about_stimulus.stopped,textbox_response.text,button.numClicks,button.timesOn,button.timesOff,Thanks.started,Thanks.stopped,keyboard_space_goodbye.keys,keyboard_space_goodbye.rt,keyboard_space_goodbye.duration
0.0003,34.4515,space,34.4095,,796503,f,y,r,n,13,0,2025-04-03_20h38.46.651,VisualSearchFaces,2024.2.4,MacIntel,58.82352941,,,,,,,,,,,,,,,,,,,,,,,,,,,,,,,,,,,,,,,,,
,,,,,796503,f,y,r,n,13,0,2025-04-03_20h38.46.651,VisualSearchFaces,2024.2.4,MacIntel,58.82352941,55.5608,58.5603,58.5747,79.5264,space,20.9293,,80.5285,80.793,80.7932,82.7937,practice1,j,1,0.7328,,0,0,0,0,1,1,centre,neutral,friendly,,,,,,,,,,,,,,,,
,,,,,796503,f,y,r,n,13,0,2025-04-03_20h38.46.651,VisualSearchFaces,2024.2.4,MacIntel,58.82352941,,,,,,,,83.7946,84.0599,84.0599,86.0598,practice1,j,1,0.9047,,0,1,1,4,1,1,bottom_right,neutral,friendly,,,,,,,,,,,,,,,,
,,,,,796503,f,y,r,n,13,0,2025-04-03_20h38.46.651,VisualSearchFaces,2024.2.4,MacIntel,58.82352941,,,,,,,,87.0611,87.3103,87.3103,89.3097,practice1,f,1,1.0674,,0,2,2,20,1,0,centre,neutral,no_target,,,,,,,,,,,,,,,,
,,,,,796503,f,y,r,n,13,0,2025-04-03_20h38.46.651,VisualSearchFaces,2024.2.4,MacIntel,58.82352941,,,,,,,,90.3113,90.5771,90.5771,92.5761,practice1,j,1,0.4661,,0,3,3,1,1,1,top_left,neutral,friendly,,,,,,,,,,,,,,,,
,,,,,796503,f,y,r,n,13,0,2025-04-03_20h38.46.651,VisualSearchFaces,2024.2.4,MacIntel,58.82352941,,,,,,,,93.5773,93.8271,93.8271,95.8271,practice1,f,1,0.6676,,0,4,4,37,1,0,top_right,threatening,no_target,,,,,,,,,,,,,,,,
,,,,,796503,f,y,r,n,13,0,2025-04-03_20h38.46.651,VisualSearchFaces,2024.2.4,MacIntel,58.82352941,,,,,,,,96.8281,97.0928,97.0928,99.093,practice1,j,1,0.9335,,0,5,5,8,1,1,bottom_left,neutral,threatening,,,,,,,,,,,,,,,,
,,,,,796503,f,y,r,n,13,0,2025-04-03_20h38.46.651,VisualSearchFaces,2024.2.4,MacIntel,58.82352941,,,,,,,,100.0945,100.3596,100.3596,102.3598,practice1,j,1,0.8335,,0,6,6,13,1,1,bottom_left,friendly,neutral,,,,,,,,,,,,,,,,
,,,,,796503,f,y,r,n,13,0,2025-04-03_20h38.46.651,VisualSearchFaces,2024.2.4,MacIntel,58.82352941,,,,,,,,103.3605,103.6103,103.6103,105.61,practice1,f,1,0.7175,,0,7,7,23,1,0,bottom_left,neutral,no_target,,,,,,,,,,,,,,,,
,,,,,796503,f,y,r,n,13,0,2025-04-03_20h38.46.651,VisualSearchFaces,2024.2.4,MacIntel,58.82352941,,,,,,,,106.6113,106.8763,106.8763,108.8761,practice1,f,1,0.8162,,0,8,8,27,1,0,top_right,neutral,no_target,,,,,,,,,,,,,,,,
,,,,,796503,f,y,r,n,13,0,2025-04-03_20h38.46.651,VisualSearchFaces,2024.2.4,MacIntel,58.82352941,,,,,,,,109.8786,110.1271,110.1271,112.1273,practice1,j,1,0.8648,,0,9,9,10,1,1,centre,friendly,neutral,,,,,,,,,,,,,,,,
,,,,,796503,f,y,r,n,13,0,2025-04-03_20h38.46.651,VisualSearchFaces,2024.2.4,MacIntel,58.82352941,,,,,,,,113.1286,113.3771,113.3772,115.3768,practice1,f,1,0.6716,,0,10,10,36,1,0,top_left,threatening,no_target,,,,,,,,,,,,,,,,
,,,,,796503,f,y,r,n,13,0,2025-04-03_20h38.46.651,VisualSearchFaces,2024.2.4,MacIntel,58.82352941,,,,,,,,116.3785,116.6436,116.6437,118.6432,practice1,f,1,0.767,,0,11,11,32,1,0,top_right,friendly,no_target,,,,,,,,,,,,,,,,
,,,,,796503,f,y,r,n,13,0,2025-04-03_20h38.46.651,VisualSearchFaces,2024.2.4,MacIntel,58.82352941,,,,,,,,119.6445,119.9104,119.9104,121.91,practice1,f,1,0.9182,,0,12,12,38,1,0,bottom_left,threatening,no_target,,,,,,,,,,,,,,,,
,,,,,796503,f,y,r,n,13,0,2025-04-03_20h38.46.651,VisualSearchFaces,2024.2.4,MacIntel,58.82352941,,,,,,,,122.9106,123.1603,123.1603,125.1611,practice1,f,1,0.6338,,0,13,13,25,1,0,centre,neutral,no_target,,,,,,,,,,,,,,,,
,,,,,796503,f,y,r,n,13,0,2025-04-03_20h38.46.651,VisualSearchFaces,2024.2.4,MacIntel,58.82352941,,,,,,,,126.1615,126.4269,126.4269,128.4263,practice1,f,1,1.5001,,0,14,14,33,1,0,bottom_left,friendly,no_target,,,,,,,,,,,,,,,,
,,,,,796503,f,y,r,n,13,0,2025-04-03_20h38.46.651,VisualSearchFaces,2024.2.4,MacIntel,58.82352941,,,,,,,,129.4286,129.6939,129.6939,131.6934,practice1,j,1,0.599,,0,15,15,11,1,1,top_left,friendly,neutral,,,,,,,,,,,,,,,,
,,,,,796503,f,y,r,n,13,0,2025-04-03_20h38.46.651,VisualSearchFaces,2024.2.4,MacIntel,58.82352941,,,,,,,,132.6944,132.9432,132.9432,134.9429,practice1,f,1,0.5171,,0,16,16,29,1,0,bottom_right,neutral,no_target,,,,,,,,,,,,,,,,
,,,,,796503,f,y,r,n,13,0,2025-04-03_20h38.46.651,VisualSearchFaces,2024.2.4,MacIntel,58.82352941,,,,,,,,135.9446,136.1939,136.1939,138.1935,practice1,j,1,0.9681,,0,17,17,5,1,1,centre,neutral,threatening,,,,,,,,,,,,,,,,
,,,,,796503,f,y,r,n,13,0,2025-04-03_20h38.46.651,VisualSearchFaces,2024.2.4,MacIntel,58.82352941,,,,,,,,139.1942,139.4437,139.4438,141.4438,practice1,j,1,0.7832,,0,18,18,15,1,1,centre,threatening,neutral,,,,,,,,,,,,,,,,
,,,,,796503,f,y,r,n,13,0,2025-04-03_20h38.46.651,VisualSearchFaces,2024.2.4,MacIntel,58.82352941,,,,,,,,142.4457,142.7108,142.7108,144.7109,practice1,f,1,1.1354,,0,19,19,35,1,0,centre,threatening,no_target,,,,,,,,,,,,,,,,
,,,,,796503,f,y,r,n,13,0,2025-04-03_20h38.46.651,VisualSearchFaces,2024.2.4,MacIntel,58.82352941,,,,,,,,145.7124,145.9775,145.9775,147.9768,practice1,f,1,1.1162,,0,20,20,21,1,0,top_left,neutral,no_target,,,,,,,,,,,,,,,,
,,,,,796503,f,y,r,n,13,0,2025-04-03_20h38.46.651,VisualSearchFaces,2024.2.4,MacIntel,58.82352941,,,,,,,,148.9788,149.2434,149.2435,151.2439,practice1,f,1,1.366,,0,21,21,30,1,0,centre,friendly,no_target,,,,,,,,,,,,,,,,
,,,,,796503,f,y,r,n,13,0,2025-04-03_20h38.46.651,VisualSearchFaces,2024.2.4,MacIntel,58.82352941,,,,,,,,152.245,152.5107,152.5107,154.5106,practice1,j,1,1.0167,,0,22,22,19,1,1,bottom_right,threatening,neutral,,,,,,,,,,,,,,,,
,,,,,796503,f,y,r,n,13,0,2025-04-03_20h38.46.651,VisualSearchFaces,2024.2.4,MacIntel,58.82352941,,,,,,,,155.5111,155.7602,155.7603,157.76,practice1,j,1,0.8169,,0,23,23,12,1,1,top_right,friendly,neutral,,,,,,,,,,,,,,,,
,,,,,796503,f,y,r,n,13,0,2025-04-03_20h38.46.651,VisualSearchFaces,2024.2.4,MacIntel,58.82352941,,,,,,,,158.7613,159.0271,159.0271,161.027,practice1,j,1,0.7165,,0,24,24,9,1,1,bottom_right,neutral,threatening,,,,,,,,,,,,,,,,
,,,,,796503,f,y,r,n,13,0,2025-04-03_20h38.46.651,VisualSearchFaces,2024.2.4,MacIntel,58.82352941,,,,,,,,162.0277,162.2936,162.2936,164.2933,practice1,j,1,0.6663,,0,25,25,6,1,1,top_left,neutral,threatening,,,,,,,,,,,,,,,,
,,,,,796503,f,y,r,n,13,0,2025-04-03_20h38.46.651,VisualSearchFaces,2024.2.4,MacIntel,58.82352941,,,,,,,,165.2944,165.5437,165.5437,167.5436,practice1,j,1,0.7172,,0,26,26,14,1,1,bottom_right,friendly,neutral,,,,,,,,,,,,,,,,
,,,,,796503,f,y,r,n,13,0,2025-04-03_20h38.46.651,VisualSearchFaces,2024.2.4,MacIntel,58.82352941,,,,,,,,168.5457,168.8105,168.8105,170.81,practice1,j,1,0.5049,,0,27,27,18,1,1,bottom_left,threatening,neutral,,,,,,,,,,,,,,,,
,,,,,796503,f,y,r,n,13,0,2025-04-03_20h38.46.651,VisualSearchFaces,2024.2.4,MacIntel,58.82352941,,,,,,,,171.8115,172.0603,172.0603,174.0598,practice1,f,1,1.2665,,0,28,28,31,1,0,top_left,friendly,no_target,,,,,,,,,,,,,,,,
,,,,,796503,f,y,r,n,13,0,2025-04-03_20h38.46.651,VisualSearchFaces,2024.2.4,MacIntel,58.82352941,,,,,,,,175.062,175.3275,175.3275,177.3276,practice1,f,1,1.5662,,0,29,29,39,1,0,bottom_right,threatening,no_target,,,,,,,,,,,,,,,,
,,,,,796503,f,y,r,n,13,0,2025-04-03_20h38.46.651,VisualSearchFaces,2024.2.4,MacIntel,58.82352941,,,,,,,,178.3284,178.5935,178.5935,180.5933,practice1,f,1,1.0656,,0,30,30,26,1,0,top_left,neutral,no_target,,,,,,,,,,,,,,,,
,,,,,796503,f,y,r,n,13,0,2025-04-03_20h38.46.651,VisualSearchFaces,2024.2.4,MacIntel,58.82352941,,,,,,,,181.5949,181.8437,181.8437,183.8441,practice1,j,1,0.8012,,0,31,31,16,1,1,top_left,threatening,neutral,,,,,,,,,,,,,,,,
,,,,,796503,f,y,r,n,13,0,2025-04-03_20h38.46.651,VisualSearchFaces,2024.2.4,MacIntel,58.82352941,,,,,,,,184.8455,185.1109,185.1109,187.1101,practice1,j,1,0.4821,,0,32,32,3,1,1,bottom_left,neutral,friendly,,,,,,,,,,,,,,,,
,,,,,796503,f,y,r,n,13,0,2025-04-03_20h38.46.651,VisualSearchFaces,2024.2.4,MacIntel,58.82352941,,,,,,,,188.1122,188.3769,188.3769,190.3768,practice1,f,1,0.5329,,0,33,33,24,1,0,bottom_right,neutral,no_target,,,,,,,,,,,,,,,,
,,,,,796503,f,y,r,n,13,0,2025-04-03_20h38.46.651,VisualSearchFaces,2024.2.4,MacIntel,58.82352941,,,,,,,,191.3788,191.6436,191.6436,193.6438,practice1,j,1,0.6195,,0,34,34,17,1,1,top_right,threatening,neutral,,,,,,,,,,,,,,,,
,,,,,796503,f,y,r,n,13,0,2025-04-03_20h38.46.651,VisualSearchFaces,2024.2.4,MacIntel,58.82352941,,,,,,,,194.6455,194.8946,194.8946,196.8933,practice1,j,1,0.4989,,0,35,35,7,1,1,top_right,neutral,threatening,,,,,,,,,,,,,,,,
,,,,,796503,f,y,r,n,13,0,2025-04-03_20h38.46.651,VisualSearchFaces,2024.2.4,MacIntel,58.82352941,,,,,,,,197.8947,198.1604,198.1605,200.1606,practice1,f,1,0.5835,,0,36,36,28,1,0,bottom_left,neutral,no_target,,,,,,,,,,,,,,,,
,,,,,796503,f,y,r,n,13,0,2025-04-03_20h38.46.651,VisualSearchFaces,2024.2.4,MacIntel,58.82352941,,,,,,,,201.1615,201.4276,201.4276,203.4274,practice1,f,1,0.8141,,0,37,37,34,1,0,bottom_right,friendly,no_target,,,,,,,,,,,,,,,,
,,,,,796503,f,y,r,n,13,0,2025-04-03_20h38.46.651,VisualSearchFaces,2024.2.4,MacIntel,58.82352941,,,,,,,,204.4291,204.6944,204.6944,206.6941,practice1,j,1,0.5032,,0,38,38,2,1,1,top_right,neutral,friendly,,,,,,,,,,,,,,,,
,,,,,796503,f,y,r,n,13,0,2025-04-03_20h38.46.651,VisualSearchFaces,2024.2.4,MacIntel,58.82352941,,,,,,,,207.6954,207.9612,207.9612,209.9609,practice1,f,1,0.5515,,0,39,39,22,1,0,top_right,neutral,no_target,,,,,,,,,,,,,,,,
,,,,,796503,f,y,r,n,13,0,2025-04-03_20h38.46.651,VisualSearchFaces,2024.2.4,MacIntel,58.82352941,,,241.5888,267.6113,space,25.9983,,268.6119,268.7108,268.7108,270.7113,practice2,f,1,1.3222,,0,0,0,21,1,0,top_left,neutral,no_target,209.9618,241.5775,space,31.5986,,,,,,,,,,,,
,,,,,796503,f,y,r,n,13,0,2025-04-03_20h38.46.651,VisualSearchFaces,2024.2.4,MacIntel,58.82352941,,,,,,,,271.7119,271.827,271.8271,273.8281,practice2,f,1,0.8002,,0,1,1,25,1,0,centre,neutral,no_target,,,,,,,,,,,,,,,,
,,,,,796503,f,y,r,n,13,0,2025-04-03_20h38.46.651,VisualSearchFaces,2024.2.4,MacIntel,58.82352941,,,,,,,,274.8288,274.9277,274.9277,276.9277,practice2,j,1,0.5191,,0,2,2,6,1,1,top_left,neutral,threatening,,,,,,,,,,,,,,,,
,,,,,796503,f,y,r,n,13,0,2025-04-03_20h38.46.651,VisualSearchFaces,2024.2.4,MacIntel,58.82352941,,,,,,,,277.9449,278.0447,278.0447,280.0449,practice2,j,0,0.433,,0,3,3,35,1,0,centre,threatening,no_target,,,,,,,,,,,,,,,,
,,,,,796503,f,y,r,n,13,0,2025-04-03_20h38.46.651,VisualSearchFaces,2024.2.4,MacIntel,58.82352941,,,,,,,,281.0455,281.1615,281.1615,283.1604,practice2,f,1,0.4677,,0,4,4,26,1,0,top_left,neutral,no_target,,,,,,,,,,,,,,,,
,,,,,796503,f,y,r,n,13,0,2025-04-03_20h38.46.651,VisualSearchFaces,2024.2.4,MacIntel,58.82352941,,,,,,,,284.1632,284.2777,284.2778,286.2776,practice2,j,1,0.6165,,0,5,5,13,1,1,bottom_left,friendly,neutral,,,,,,,,,,,,,,,,
,,,,,796503,f,y,r,n,13,0,2025-04-03_20h38.46.651,VisualSearchFaces,2024.2.4,MacIntel,58.82352941,,,,,,,,287.2789,287.3939,287.3939,289.3947,practice2,f,1,0.55,,0,6,6,29,1,0,bottom_right,neutral,no_target,,,,,,,,,,,,,,,,
,,,,,796503,f,y,r,n,13,0,2025-04-03_20h38.46.651,VisualSearchFaces,2024.2.4,MacIntel,58.82352941,,,,,,,,290.3951,290.4948,290.4948,292.4947,practice2,j,1,0.5482,,0,7,7,19,1,1,bottom_right,threatening,neutral,,,,,,,,,,,,,,,,
,,,,,796503,f,y,r,n,13,0,2025-04-03_20h38.46.651,VisualSearchFaces,2024.2.4,MacIntel,58.82352941,,,,,,,,293.4957,293.6115,293.6115,295.6109,practice2,f,1,1.1831,,0,8,8,30,1,0,centre,friendly,no_target,,,,,,,,,,,,,,,,
,,,,,796503,f,y,r,n,13,0,2025-04-03_20h38.46.651,VisualSearchFaces,2024.2.4,MacIntel,58.82352941,,,,,,,,296.6125,296.7273,296.7273,298.7282,practice2,j,0,1.2528,,0,9,9,32,1,0,top_right,friendly,no_target,,,,,,,,,,,,,,,,
,,,,,796503,f,y,r,n,13,0,2025-04-03_20h38.46.651,VisualSearchFaces,2024.2.4,MacIntel,58.82352941,,,,,,,,299.7293,299.8441,299.8441,301.8442,practice2,f,1,0.7992,,0,10,10,39,1,0,bottom_right,threatening,no_target,,,,,,,,,,,,,,,,
,,,,,796503,f,y,r,n,13,0,2025-04-03_20h38.46.651,VisualSearchFaces,2024.2.4,MacIntel,58.82352941,,,,,,,,302.845,302.9606,302.9607,304.961,practice2,j,1,0.7501,,0,11,11,18,1,1,bottom_left,threatening,neutral,,,,,,,,,,,,,,,,
,,,,,796503,f,y,r,n,13,0,2025-04-03_20h38.46.651,VisualSearchFaces,2024.2.4,MacIntel,58.82352941,,,,,,,,305.962,306.0781,306.0781,308.0781,practice2,f,1,0.6326,,0,12,12,20,1,0,centre,neutral,no_target,,,,,,,,,,,,,,,,
,,,,,796503,f,y,r,n,13,0,2025-04-03_20h38.46.651,VisualSearchFaces,2024.2.4,MacIntel,58.82352941,,,,,,,,309.079,309.1949,309.1949,311.1948,practice2,f,1,0.6819,,0,13,13,23,1,0,bottom_left,neutral,no_target,,,,,,,,,,,,,,,,
,,,,,796503,f,y,r,n,13,0,2025-04-03_20h38.46.651,VisualSearchFaces,2024.2.4,MacIntel,58.82352941,,,,,,,,312.1957,312.3108,312.3108,314.3112,practice2,j,1,0.4173,,0,14,14,0,1,1,centre,neutral,friendly,,,,,,,,,,,,,,,,
,,,,,796503,f,y,r,n,13,0,2025-04-03_20h38.46.651,VisualSearchFaces,2024.2.4,MacIntel,58.82352941,,,,,,,,315.3121,315.4114,315.4115,317.4111,practice2,j,1,0.7333,,0,15,15,15,1,1,centre,threatening,neutral,,,,,,,,,,,,,,,,
,,,,,796503,f,y,r,n,13,0,2025-04-03_20h38.46.651,VisualSearchFaces,2024.2.4,MacIntel,58.82352941,,,,,,,,318.4125,318.5281,318.5281,320.528,practice2,f,1,0.9659,,0,16,16,33,1,0,bottom_left,friendly,no_target,,,,,,,,,,,,,,,,
,,,,,796503,f,y,r,n,13,0,2025-04-03_20h38.46.651,VisualSearchFaces,2024.2.4,MacIntel,58.82352941,,,,,,,,321.529,321.6446,321.6446,323.6445,practice2,f,1,0.7666,,0,17,17,27,1,0,top_right,neutral,no_target,,,,,,,,,,,,,,,,
,,,,,796503,f,y,r,n,13,0,2025-04-03_20h38.46.651,VisualSearchFaces,2024.2.4,MacIntel,58.82352941,,,,,,,,324.6454,324.7616,324.7617,326.7607,practice2,j,1,0.5016,,0,18,18,2,1,1,top_right,neutral,friendly,,,,,,,,,,,,,,,,
,,,,,796503,f,y,r,n,13,0,2025-04-03_20h38.46.651,VisualSearchFaces,2024.2.4,MacIntel,58.82352941,,,,,,,,327.7617,327.8616,327.8616,329.8616,practice2,j,1,0.5554,,0,19,19,12,1,1,top_right,friendly,neutral,,,,,,,,,,,,,,,,
,,,,,796503,f,y,r,n,13,0,2025-04-03_20h38.46.651,VisualSearchFaces,2024.2.4,MacIntel,58.82352941,,,,,,,,330.8623,330.9616,330.9617,332.9609,practice2,j,1,0.6328,,0,20,20,8,1,1,bottom_left,neutral,threatening,,,,,,,,,,,,,,,,
,,,,,796503,f,y,r,n,13,0,2025-04-03_20h38.46.651,VisualSearchFaces,2024.2.4,MacIntel,58.82352941,,,,,,,,333.9621,334.0617,334.0617,336.0617,practice2,j,1,0.4328,,0,21,21,3,1,1,bottom_left,neutral,friendly,,,,,,,,,,,,,,,,
,,,,,796503,f,y,r,n,13,0,2025-04-03_20h38.46.651,VisualSearchFaces,2024.2.4,MacIntel,58.82352941,,,,,,,,337.0632,337.1782,337.1782,339.1782,practice2,f,1,0.4317,,0,22,22,22,1,0,top_right,neutral,no_target,,,,,,,,,,,,,,,,
,,,,,796503,f,y,r,n,13,0,2025-04-03_20h38.46.651,VisualSearchFaces,2024.2.4,MacIntel,58.82352941,,,,,,,,340.1794,340.2782,340.2782,342.2782,practice2,f,1,1.1844,,0,23,23,34,1,0,bottom_right,friendly,no_target,,,,,,,,,,,,,,,,
,,,,,796503,f,y,r,n,13,0,2025-04-03_20h38.46.651,VisualSearchFaces,2024.2.4,MacIntel,58.82352941,,,,,,,,343.2792,343.3783,343.3783,345.3781,practice2,j,0,1.4862,,0,24,24,38,1,0,bottom_left,threatening,no_target,,,,,,,,,,,,,,,,
,,,,,796503,f,y,r,n,13,0,2025-04-03_20h38.46.651,VisualSearchFaces,2024.2.4,MacIntel,58.82352941,,,,,,,,346.3792,346.4782,346.4782,348.4782,practice2,j,1,0.5991,,0,25,25,16,1,1,top_left,threatening,neutral,,,,,,,,,,,,,,,,
,,,,,796503,f,y,r,n,13,0,2025-04-03_20h38.46.651,VisualSearchFaces,2024.2.4,MacIntel,58.82352941,,,,,,,,349.4795,349.595,349.5951,351.595,practice2,f,1,0.5354,,0,26,26,28,1,0,bottom_left,neutral,no_target,,,,,,,,,,,,,,,,
,,,,,796503,f,y,r,n,13,0,2025-04-03_20h38.46.651,VisualSearchFaces,2024.2.4,MacIntel,58.82352941,,,,,,,,352.5953,352.6949,352.6949,354.6951,practice2,j,1,0.5689,,0,27,27,5,1,1,centre,neutral,threatening,,,,,,,,,,,,,,,,
,,,,,796503,f,y,r,n,13,0,2025-04-03_20h38.46.651,VisualSearchFaces,2024.2.4,MacIntel,58.82352941,,,,,,,,355.6955,355.8118,355.8119,357.811,practice2,j,1,0.6344,,0,28,28,14,1,1,bottom_right,friendly,neutral,,,,,,,,,,,,,,,,
,,,,,796503,f,y,r,n,13,0,2025-04-03_20h38.46.651,VisualSearchFaces,2024.2.4,MacIntel,58.82352941,,,,,,,,358.812,358.9115,358.9115,360.9117,practice2,f,1,0.4324,,0,29,29,24,1,0,bottom_right,neutral,no_target,,,,,,,,,,,,,,,,
,,,,,796503,f,y,r,n,13,0,2025-04-03_20h38.46.651,VisualSearchFaces,2024.2.4,MacIntel,58.82352941,,,,,,,,361.9122,362.0117,362.0118,364.0113,practice2,f,1,0.9516,,0,30,30,37,1,0,top_right,threatening,no_target,,,,,,,,,,,,,,,,
,,,,,796503,f,y,r,n,13,0,2025-04-03_20h38.46.651,VisualSearchFaces,2024.2.4,MacIntel,58.82352941,,,,,,,,365.0129,365.1282,365.1282,367.1284,practice2,j,1,0.5167,,0,31,31,7,1,1,top_right,neutral,threatening,,,,,,,,,,,,,,,,
,,,,,796503,f,y,r,n,13,0,2025-04-03_20h38.46.651,VisualSearchFaces,2024.2.4,MacIntel,58.82352941,,,,,,,,368.1294,368.2441,368.2441,370.245,practice2,j,1,0.7844,,0,32,32,9,1,1,bottom_right,neutral,threatening,,,,,,,,,,,,,,,,
,,,,,796503,f,y,r,n,13,0,2025-04-03_20h38.46.651,VisualSearchFaces,2024.2.4,MacIntel,58.82352941,,,,,,,,371.2454,371.3447,371.3448,373.3448,practice2,j,1,0.9497,,0,33,33,1,1,1,top_left,neutral,friendly,,,,,,,,,,,,,,,,
,,,,,796503,f,y,r,n,13,0,2025-04-03_20h38.46.651,VisualSearchFaces,2024.2.4,MacIntel,58.82352941,,,,,,,,374.3462,374.4449,374.4449,376.4446,practice2,f,0,1.0162,,0,34,34,17,1,1,top_right,threatening,neutral,,,,,,,,,,,,,,,,
,,,,,796503,f,y,r,n,13,0,2025-04-03_20h38.46.651,VisualSearchFaces,2024.2.4,MacIntel,58.82352941,,,,,,,,377.4458,377.5451,377.5451,379.5445,practice2,j,0,0.9222,,0,35,35,36,1,0,top_left,threatening,no_target,,,,,,,,,,,,,,,,
,,,,,796503,f,y,r,n,13,0,2025-04-03_20h38.46.651,VisualSearchFaces,2024.2.4,MacIntel,58.82352941,,,,,,,,380.5469,380.6609,380.6609,382.6617,practice2,f,1,1.4857,,0,36,36,31,1,0,top_left,friendly,no_target,,,,,,,,,,,,,,,,
,,,,,796503,f,y,r,n,13,0,2025-04-03_20h38.46.651,VisualSearchFaces,2024.2.4,MacIntel,58.82352941,,,,,,,,383.6626,383.7619,383.7619,385.7614,practice2,j,1,0.7665,,0,37,37,11,1,1,top_left,friendly,neutral,,,,,,,,,,,,,,,,
,,,,,796503,f,y,r,n,13,0,2025-04-03_20h38.46.651,VisualSearchFaces,2024.2.4,MacIntel,58.82352941,,,,,,,,386.762,386.861,386.8611,388.8613,practice2,j,1,0.9855,,0,38,38,10,1,1,centre,friendly,neutral,,,,,,,,,,,,,,,,
,,,,,796503,f,y,r,n,13,0,2025-04-03_20h38.46.651,VisualSearchFaces,2024.2.4,MacIntel,58.82352941,,,,,,,,389.8629,389.9782,389.9782,391.9782,practice2,j,1,1.0499,,0,39,39,4,1,1,bottom_right,neutral,friendly,,,,,,,,,,,,,,,,
,,,,,796503,f,y,r,n,13,0,2025-04-03_20h38.46.651,VisualSearchFaces,2024.2.4,MacIntel,58.82352941,,,414.9227,436.7118,space,21.7641,,437.7134,437.8284,437.8284,439.8282,block1,j,0,1.1857,,0,0,0,38,1,0,bottom_left,threatening,no_target,391.9792,414.9122,space,22.9122,,,,,,,,,,,,
,,,,,796503,f,y,r,n,13,0,2025-04-03_20h38.46.651,VisualSearchFaces,2024.2.4,MacIntel,58.82352941,,,,,,,,440.8292,440.9284,440.9284,442.9282,block1,j,1,0.7205,,0,1,1,9,1,1,bottom_right,neutral,threatening,,,,,,,,,,,,,,,,
,,,,,796503,f,y,r,n,13,0,2025-04-03_20h38.46.651,VisualSearchFaces,2024.2.4,MacIntel,58.82352941,,,,,,,,443.9293,444.0457,444.0457,446.045,block1,f,1,0.5845,,0,2,2,24,1,0,bottom_right,neutral,no_target,,,,,,,,,,,,,,,,
,,,,,796503,f,y,r,n,13,0,2025-04-03_20h38.46.651,VisualSearchFaces,2024.2.4,MacIntel,58.82352941,,,,,,,,447.0458,447.1454,447.1454,449.1447,block1,f,0,1.1181,,0,3,3,12,1,1,top_right,friendly,neutral,,,,,,,,,,,,,,,,
,,,,,796503,f,y,r,n,13,0,2025-04-03_20h38.46.651,VisualSearchFaces,2024.2.4,MacIntel,58.82352941,,,,,,,,450.1464,450.2621,450.2621,452.2622,block1,j,1,0.6176,,0,4,4,16,1,1,top_left,threatening,neutral,,,,,,,,,,,,,,,,
,,,,,796503,f,y,r,n,13,0,2025-04-03_20h38.46.651,VisualSearchFaces,2024.2.4,MacIntel,58.82352941,,,,,,,,453.263,453.3782,453.3782,455.3782,block1,f,1,0.7235,,0,5,5,28,1,0,bottom_left,neutral,no_target,,,,,,,,,,,,,,,,
,,,,,796503,f,y,r,n,13,0,2025-04-03_20h38.46.651,VisualSearchFaces,2024.2.4,MacIntel,58.82352941,,,,,,,,456.3796,456.4957,456.4957,458.4951,block1,f,1,1.0995,,0,6,6,22,1,0,top_right,neutral,no_target,,,,,,,,,,,,,,,,
,,,,,796503,f,y,r,n,13,0,2025-04-03_20h38.46.651,VisualSearchFaces,2024.2.4,MacIntel,58.82352941,,,,,,,,459.4961,459.595,459.595,461.5956,block1,j,0,0.9222,,0,7,7,32,1,0,top_right,friendly,no_target,,,,,,,,,,,,,,,,
,,,,,796503,f,y,r,n,13,0,2025-04-03_20h38.46.651,VisualSearchFaces,2024.2.4,MacIntel,58.82352941,,,,,,,,462.5965,462.7121,462.7121,464.7122,block1,j,1,0.6322,,0,8,8,8,1,1,bottom_left,neutral,threatening,,,,,,,,,,,,,,,,
,,,,,796503,f,y,r,n,13,0,2025-04-03_20h38.46.651,VisualSearchFaces,2024.2.4,MacIntel,58.82352941,,,,,,,,465.7135,465.8285,465.8285,467.8285,block1,j,1,0.8833,,0,9,9,18,1,1,bottom_left,threatening,neutral,,,,,,,,,,,,,,,,
,,,,,796503,f,y,r,n,13,0,2025-04-03_20h38.46.651,VisualSearchFaces,2024.2.4,MacIntel,58.82352941,,,,,,,,468.8294,468.9282,468.9282,470.9281,block1,f,1,0.987,,0,10,10,26,1,0,top_left,neutral,no_target,,,,,,,,,,,,,,,,
,,,,,796503,f,y,r,n,13,0,2025-04-03_20h38.46.651,VisualSearchFaces,2024.2.4,MacIntel,58.82352941,,,,,,,,471.9301,472.0451,472.0451,474.0449,block1,j,0,0.8518,,0,11,11,39,1,0,bottom_right,threatening,no_target,,,,,,,,,,,,,,,,
,,,,,796503,f,y,r,n,13,0,2025-04-03_20h38.46.651,VisualSearchFaces,2024.2.4,MacIntel,58.82352941,,,,,,,,475.0469,475.1622,475.1622,477.1618,block1,j,1,1.1163,,0,12,12,19,1,1,bottom_right,threatening,neutral,,,,,,,,,,,,,,,,
,,,,,796503,f,y,r,n,13,0,2025-04-03_20h38.46.651,VisualSearchFaces,2024.2.4,MacIntel,58.82352941,,,,,,,,478.1636,478.2781,478.2782,480.2782,block1,f,1,0.6552,,0,13,13,29,1,0,bottom_right,neutral,no_target,,,,,,,,,,,,,,,,
,,,,,796503,f,y,r,n,13,0,2025-04-03_20h38.46.651,VisualSearchFaces,2024.2.4,MacIntel,58.82352941,,,,,,,,481.2797,481.3787,481.3787,483.3783,block1,f,1,0.6506,,0,14,14,21,1,0,top_left,neutral,no_target,,,,,,,,,,,,,,,,
,,,,,796503,f,y,r,n,13,0,2025-04-03_20h38.46.651,VisualSearchFaces,2024.2.4,MacIntel,58.82352941,,,,,,,,484.3798,484.4794,484.4794,486.4782,block1,j,1,0.5327,,0,15,15,6,1,1,top_left,neutral,threatening,,,,,,,,,,,,,,,,
,,,,,796503,f,y,r,n,13,0,2025-04-03_20h38.46.651,VisualSearchFaces,2024.2.4,MacIntel,58.82352941,,,,,,,,487.4794,487.5787,487.5788,489.5783,block1,j,1,0.4357,,0,16,16,1,1,1,top_left,neutral,friendly,,,,,,,,,,,,,,,,
,,,,,796503,f,y,r,n,13,0,2025-04-03_20h38.46.651,VisualSearchFaces,2024.2.4,MacIntel,58.82352941,,,,,,,,490.5798,490.6959,490.6959,492.6952,block1,j,0,0.4988,,0,17,17,33,1,0,bottom_left,friendly,no_target,,,,,,,,,,,,,,,,
,,,,,796503,f,y,r,n,13,0,2025-04-03_20h38.46.651,VisualSearchFaces,2024.2.4,MacIntel,58.82352941,,,,,,,,493.6962,493.7961,493.7962,495.796,block1,f,1,0.5869,,0,18,18,20,1,0,centre,neutral,no_target,,,,,,,,,,,,,,,,
,,,,,796503,f,y,r,n,13,0,2025-04-03_20h38.46.651,VisualSearchFaces,2024.2.4,MacIntel,58.82352941,,,,,,,,496.7966,496.8959,496.8959,498.8955,block1,j,1,0.6334,,0,19,19,15,1,1,centre,threatening,neutral,,,,,,,,,,,,,,,,
,,,,,796503,f,y,r,n,13,0,2025-04-03_20h38.46.651,VisualSearchFaces,2024.2.4,MacIntel,58.82352941,,,,,,,,499.897,500.0118,500.0118,502.0125,block1,j,1,0.5163,,0,20,20,0,1,1,centre,neutral,friendly,,,,,,,,,,,,,,,,
,,,,,796503,f,y,r,n,13,0,2025-04-03_20h38.46.651,VisualSearchFaces,2024.2.4,MacIntel,58.82352941,,,,,,,,503.013,503.1127,503.1127,505.112,block1,f,0,0.8365,,0,21,21,17,1,1,top_right,threatening,neutral,,,,,,,,,,,,,,,,
,,,,,796503,f,y,r,n,13,0,2025-04-03_20h38.46.651,VisualSearchFaces,2024.2.4,MacIntel,58.82352941,,,,,,,,506.1129,506.2125,506.2125,508.2116,block1,f,1,0.9007,,0,22,22,25,1,0,centre,neutral,no_target,,,,,,,,,,,,,,,,
,,,,,796503,f,y,r,n,13,0,2025-04-03_20h38.46.651,VisualSearchFaces,2024.2.4,MacIntel,58.82352941,,,,,,,,509.2129,509.3124,509.3124,511.3118,block1,j,1,0.4667,,0,23,23,5,1,1,centre,neutral,threatening,,,,,,,,,,,,,,,,
,,,,,796503,f,y,r,n,13,0,2025-04-03_20h38.46.651,VisualSearchFaces,2024.2.4,MacIntel,58.82352941,,,,,,,,512.3128,512.4122,512.4122,514.4118,block1,j,1,0.4662,,0,24,24,7,1,1,top_right,neutral,threatening,,,,,,,,,,,,,,,,
,,,,,796503,f,y,r,n,13,0,2025-04-03_20h38.46.651,VisualSearchFaces,2024.2.4,MacIntel,58.82352941,,,,,,,,515.4128,515.512,515.512,517.5127,block1,f,1,0.6845,,0,25,25,31,1,0,top_left,friendly,no_target,,,,,,,,,,,,,,,,
,,,,,796503,f,y,r,n,13,0,2025-04-03_20h38.46.651,VisualSearchFaces,2024.2.4,MacIntel,58.82352941,,,,,,,,518.514,518.629,518.6291,520.6293,block1,f,1,0.7166,,0,26,26,23,1,0,bottom_left,neutral,no_target,,,,,,,,,,,,,,,,
,,,,,796503,f,y,r,n,13,0,2025-04-03_20h38.46.651,VisualSearchFaces,2024.2.4,MacIntel,58.82352941,,,,,,,,521.6305,521.7451,521.7451,523.745,block1,j,1,0.6005,,0,27,27,11,1,1,top_left,friendly,neutral,,,,,,,,,,,,,,,,
,,,,,796503,f,y,r,n,13,0,2025-04-03_20h38.46.651,VisualSearchFaces,2024.2.4,MacIntel,58.82352941,,,,,,,,524.7471,524.8627,524.8627,526.8618,block1,j,1,0.5018,,0,28,28,2,1,1,top_right,neutral,friendly,,,,,,,,,,,,,,,,
,,,,,796503,f,y,r,n,13,0,2025-04-03_20h38.46.651,VisualSearchFaces,2024.2.4,MacIntel,58.82352941,,,,,,,,527.8643,527.9794,527.9794,529.9794,block1,f,1,0.6503,,0,29,29,37,1,0,top_right,threatening,no_target,,,,,,,,,,,,,,,,
,,,,,796503,f,y,r,n,13,0,2025-04-03_20h38.46.651,VisualSearchFaces,2024.2.4,MacIntel,58.82352941,,,,,,,,530.9797,531.0951,531.0951,533.0952,block1,j,1,0.4671,,0,30,30,4,1,1,bottom_right,neutral,friendly,,,,,,,,,,,,,,,,
,,,,,796503,f,y,r,n,13,0,2025-04-03_20h38.46.651,VisualSearchFaces,2024.2.4,MacIntel,58.82352941,,,,,,,,534.0967,534.2117,534.2117,536.2124,block1,f,0,0.7698,,0,31,31,14,1,1,bottom_right,friendly,neutral,,,,,,,,,,,,,,,,
,,,,,796503,f,y,r,n,13,0,2025-04-03_20h38.46.651,VisualSearchFaces,2024.2.4,MacIntel,58.82352941,,,,,,,,537.2142,537.3294,537.3295,539.3292,block1,j,1,0.5663,,0,32,32,10,1,1,centre,friendly,neutral,,,,,,,,,,,,,,,,
,,,,,796503,f,y,r,n,13,0,2025-04-03_20h38.46.651,VisualSearchFaces,2024.2.4,MacIntel,58.82352941,,,,,,,,540.3297,540.4296,540.4296,542.4295,block1,f,0,0.835,,0,33,33,13,1,1,bottom_left,friendly,neutral,,,,,,,,,,,,,,,,
,,,,,796503,f,y,r,n,13,0,2025-04-03_20h38.46.651,VisualSearchFaces,2024.2.4,MacIntel,58.82352941,,,,,,,,543.4297,543.5289,543.529,545.5291,block1,f,1,0.5501,,0,34,34,27,1,0,top_right,neutral,no_target,,,,,,,,,,,,,,,,
,,,,,796503,f,y,r,n,13,0,2025-04-03_20h38.46.651,VisualSearchFaces,2024.2.4,MacIntel,58.82352941,,,,,,,,546.5306,546.646,546.646,548.6461,block1,j,1,0.3973,,0,35,35,3,1,1,bottom_left,neutral,friendly,,,,,,,,,,,,,,,,
,,,,,796503,f,y,r,n,13,0,2025-04-03_20h38.46.651,VisualSearchFaces,2024.2.4,MacIntel,58.82352941,,,,,,,,549.6469,549.7461,549.7461,551.7458,block1,f,1,0.8506,,0,36,36,35,1,0,centre,threatening,no_target,,,,,,,,,,,,,,,,
,,,,,796503,f,y,r,n,13,0,2025-04-03_20h38.46.651,VisualSearchFaces,2024.2.4,MacIntel,58.82352941,,,,,,,,552.7468,552.8629,552.8629,554.8628,block1,f,1,0.6163,,0,37,37,30,1,0,centre,friendly,no_target,,,,,,,,,,,,,,,,
,,,,,796503,f,y,r,n,13,0,2025-04-03_20h38.46.651,VisualSearchFaces,2024.2.4,MacIntel,58.82352941,,,,,,,,555.8641,555.9795,555.9795,557.9795,block1,f,1,0.5672,,0,38,38,34,1,0,bottom_right,friendly,no_target,,,,,,,,,,,,,,,,
,,,,,796503,f,y,r,n,13,0,2025-04-03_20h38.46.651,VisualSearchFaces,2024.2.4,MacIntel,58.82352941,,,,,,,,558.9798,559.0795,559.0795,561.0786,block1,j,0,0.5316,,0,39,39,36,1,0,top_left,threatening,no_target,,,,,,,,,,,,,,,,
,,,,,796503,f,y,r,n,13,0,2025-04-03_20h38.46.651,VisualSearchFaces,2024.2.4,MacIntel,58.82352941,,,,,,,,562.0808,562.1959,562.1959,564.1962,block1,j,1,0.5511,,1,0,40,15,1,1,centre,threatening,neutral,,,,,,,,,,,,,,,,
,,,,,796503,f,y,r,n,13,0,2025-04-03_20h38.46.651,VisualSearchFaces,2024.2.4,MacIntel,58.82352941,,,,,,,,565.1966,565.2956,565.2956,567.2956,block1,j,1,0.8004,,1,1,41,13,1,1,bottom_left,friendly,neutral,,,,,,,,,,,,,,,,
,,,,,796503,f,y,r,n,13,0,2025-04-03_20h38.46.651,VisualSearchFaces,2024.2.4,MacIntel,58.82352941,,,,,,,,568.2976,568.4119,568.4119,570.4129,block1,f,1,0.6668,,1,2,42,28,1,0,bottom_left,neutral,no_target,,,,,,,,,,,,,,,,
,,,,,796503,f,y,r,n,13,0,2025-04-03_20h38.46.651,VisualSearchFaces,2024.2.4,MacIntel,58.82352941,,,,,,,,571.4145,571.5294,571.5294,573.5293,block1,f,1,0.5153,,1,3,43,32,1,0,top_right,friendly,no_target,,,,,,,,,,,,,,,,
,,,,,796503,f,y,r,n,13,0,2025-04-03_20h38.46.651,VisualSearchFaces,2024.2.4,MacIntel,58.82352941,,,,,,,,574.5305,574.6455,574.6455,576.6459,block1,f,1,0.6508,,1,4,44,38,1,0,bottom_left,threatening,no_target,,,,,,,,,,,,,,,,
,,,,,796503,f,y,r,n,13,0,2025-04-03_20h38.46.651,VisualSearchFaces,2024.2.4,MacIntel,58.82352941,,,,,,,,577.6476,577.7627,577.7627,579.7629,block1,f,1,0.602,,1,5,45,37,1,0,top_right,threatening,no_target,,,,,,,,,,,,,,,,
,,,,,796503,f,y,r,n,13,0,2025-04-03_20h38.46.651,VisualSearchFaces,2024.2.4,MacIntel,58.82352941,,,,,,,,580.7642,580.8797,580.8797,582.8793,block1,j,0,0.4136,,1,6,46,25,1,0,centre,neutral,no_target,,,,,,,,,,,,,,,,
,,,,,796503,f,y,r,n,13,0,2025-04-03_20h38.46.651,VisualSearchFaces,2024.2.4,MacIntel,58.82352941,,,,,,,,583.8809,583.9963,583.9963,585.9963,block1,j,1,0.6672,,1,7,47,1,1,1,top_left,neutral,friendly,,,,,,,,,,,,,,,,
,,,,,796503,f,y,r,n,13,0,2025-04-03_20h38.46.651,VisualSearchFaces,2024.2.4,MacIntel,58.82352941,,,,,,,,586.9967,587.0964,587.0965,589.096,block1,f,1,0.4562,,1,8,48,23,1,0,bottom_left,neutral,no_target,,,,,,,,,,,,,,,,
,,,,,796503,f,y,r,n,13,0,2025-04-03_20h38.46.651,VisualSearchFaces,2024.2.4,MacIntel,58.82352941,,,,,,,,590.0977,590.1966,590.1966,592.1963,block1,f,1,0.5833,,1,9,49,21,1,0,top_left,neutral,no_target,,,,,,,,,,,,,,,,
,,,,,796503,f,y,r,n,13,0,2025-04-03_20h38.46.651,VisualSearchFaces,2024.2.4,MacIntel,58.82352941,,,,,,,,593.1983,593.3125,593.3125,595.3127,block1,j,1,0.5855,,1,10,50,17,1,1,top_right,threatening,neutral,,,,,,,,,,,,,,,,
,,,,,796503,f,y,r,n,13,0,2025-04-03_20h38.46.651,VisualSearchFaces,2024.2.4,MacIntel,58.82352941,,,,,,,,596.3139,596.4293,596.4293,598.4289,block1,f,1,0.7331,,1,11,51,29,1,0,bottom_right,neutral,no_target,,,,,,,,,,,,,,,,
,,,,,796503,f,y,r,n,13,0,2025-04-03_20h38.46.651,VisualSearchFaces,2024.2.4,MacIntel,58.82352941,,,,,,,,599.4309,599.5456,599.5456,601.5458,block1,j,1,0.5501,,1,12,52,2,1,1,top_right,neutral,friendly,,,,,,,,,,,,,,,,
,,,,,796503,f,y,r,n,13,0,2025-04-03_20h38.46.651,VisualSearchFaces,2024.2.4,MacIntel,58.82352941,,,,,,,,602.5473,602.6628,602.6628,604.6631,block1,j,1,0.4331,,1,13,53,0,1,1,centre,neutral,friendly,,,,,,,,,,,,,,,,
,,,,,796503,f,y,r,n,13,0,2025-04-03_20h38.46.651,VisualSearchFaces,2024.2.4,MacIntel,58.82352941,,,,,,,,605.6645,605.7798,605.7798,607.779,block1,j,1,0.366,,1,14,54,7,1,1,top_right,neutral,threatening,,,,,,,,,,,,,,,,
,,,,,796503,f,y,r,n,13,0,2025-04-03_20h38.46.651,VisualSearchFaces,2024.2.4,MacIntel,58.82352941,,,,,,,,608.7801,608.8792,608.8792,610.8792,block1,j,1,0.4522,,1,15,55,3,1,1,bottom_left,neutral,friendly,,,,,,,,,,,,,,,,
,,,,,796503,f,y,r,n,13,0,2025-04-03_20h38.46.651,VisualSearchFaces,2024.2.4,MacIntel,58.82352941,,,,,,,,611.8801,611.9793,611.9793,613.979,block1,f,1,0.5839,,1,16,56,39,1,0,bottom_right,threatening,no_target,,,,,,,,,,,,,,,,
,,,,,796503,f,y,r,n,13,0,2025-04-03_20h38.46.651,VisualSearchFaces,2024.2.4,MacIntel,58.82352941,,,,,,,,614.9805,615.0793,615.0793,617.0797,block1,j,1,0.5167,,1,17,57,6,1,1,top_left,neutral,threatening,,,,,,,,,,,,,,,,
,,,,,796503,f,y,r,n,13,0,2025-04-03_20h38.46.651,VisualSearchFaces,2024.2.4,MacIntel,58.82352941,,,,,,,,618.0809,618.18,618.18,620.1795,block1,j,1,0.7333,,1,18,58,18,1,1,bottom_left,threatening,neutral,,,,,,,,,,,,,,,,
,,,,,796503,f,y,r,n,13,0,2025-04-03_20h38.46.651,VisualSearchFaces,2024.2.4,MacIntel,58.82352941,,,,,,,,621.1799,621.2964,621.2964,623.2967,block1,f,1,0.6994,,1,19,59,22,1,0,top_right,neutral,no_target,,,,,,,,,,,,,,,,
,,,,,796503,f,y,r,n,13,0,2025-04-03_20h38.46.651,VisualSearchFaces,2024.2.4,MacIntel,58.82352941,,,,,,,,624.2974,624.3967,624.3968,626.3959,block1,f,1,0.5986,,1,20,60,26,1,0,top_left,neutral,no_target,,,,,,,,,,,,,,,,
,,,,,796503,f,y,r,n,13,0,2025-04-03_20h38.46.651,VisualSearchFaces,2024.2.4,MacIntel,58.82352941,,,,,,,,627.3978,627.5134,627.5135,629.5128,block1,f,1,0.666,,1,21,61,35,1,0,centre,threatening,no_target,,,,,,,,,,,,,,,,
,,,,,796503,f,y,r,n,13,0,2025-04-03_20h38.46.651,VisualSearchFaces,2024.2.4,MacIntel,58.82352941,,,,,,,,630.5136,630.6125,630.6125,632.6128,block1,f,1,0.9015,,1,22,62,33,1,0,bottom_left,friendly,no_target,,,,,,,,,,,,,,,,
,,,,,796503,f,y,r,n,13,0,2025-04-03_20h38.46.651,VisualSearchFaces,2024.2.4,MacIntel,58.82352941,,,,,,,,633.614,633.73,633.73,635.7296,block1,f,1,0.6492,,1,23,63,24,1,0,bottom_right,neutral,no_target,,,,,,,,,,,,,,,,
,,,,,796503,f,y,r,n,13,0,2025-04-03_20h38.46.651,VisualSearchFaces,2024.2.4,MacIntel,58.82352941,,,,,,,,636.7304,636.8294,636.8294,638.829,block1,j,1,0.5172,,1,24,64,14,1,1,bottom_right,friendly,neutral,,,,,,,,,,,,,,,,
,,,,,796503,f,y,r,n,13,0,2025-04-03_20h38.46.651,VisualSearchFaces,2024.2.4,MacIntel,58.82352941,,,,,,,,639.8309,639.9466,639.9466,641.9465,block1,f,1,0.6214,,1,25,65,27,1,0,top_right,neutral,no_target,,,,,,,,,,,,,,,,
,,,,,796503,f,y,r,n,13,0,2025-04-03_20h38.46.651,VisualSearchFaces,2024.2.4,MacIntel,58.82352941,,,,,,,,642.9479,643.0628,643.0629,645.0624,block1,j,1,0.7499,,1,26,66,19,1,1,bottom_right,threatening,neutral,,,,,,,,,,,,,,,,
,,,,,796503,f,y,r,n,13,0,2025-04-03_20h38.46.651,VisualSearchFaces,2024.2.4,MacIntel,58.82352941,,,,,,,,646.0639,646.1633,646.1633,648.1626,block1,f,0,0.4174,,1,27,67,4,1,1,bottom_right,neutral,friendly,,,,,,,,,,,,,,,,
,,,,,796503,f,y,r,n,13,0,2025-04-03_20h38.46.651,VisualSearchFaces,2024.2.4,MacIntel,58.82352941,,,,,,,,649.1647,649.2633,649.2633,651.2633,block1,j,1,0.6002,,1,28,68,10,1,1,centre,friendly,neutral,,,,,,,,,,,,,,,,
,,,,,796503,f,y,r,n,13,0,2025-04-03_20h38.46.651,VisualSearchFaces,2024.2.4,MacIntel,58.82352941,,,,,,,,652.2642,652.3635,652.3636,654.3625,block1,f,1,0.5701,,1,29,69,31,1,0,top_left,friendly,no_target,,,,,,,,,,,,,,,,
,,,,,796503,f,y,r,n,13,0,2025-04-03_20h38.46.651,VisualSearchFaces,2024.2.4,MacIntel,58.82352941,,,,,,,,655.3645,655.4791,655.4791,657.4799,block1,j,1,0.868,,1,30,70,12,1,1,top_right,friendly,neutral,,,,,,,,,,,,,,,,
,,,,,796503,f,y,r,n,13,0,2025-04-03_20h38.46.651,VisualSearchFaces,2024.2.4,MacIntel,58.82352941,,,,,,,,658.4809,658.5802,658.5802,660.58,block1,j,1,0.4666,,1,31,71,8,1,1,bottom_left,neutral,threatening,,,,,,,,,,,,,,,,
,,,,,796503,f,y,r,n,13,0,2025-04-03_20h38.46.651,VisualSearchFaces,2024.2.4,MacIntel,58.82352941,,,,,,,,661.5813,661.6967,661.6967,663.6965,block1,f,1,0.5324,,1,32,72,30,1,0,centre,friendly,no_target,,,,,,,,,,,,,,,,
,,,,,796503,f,y,r,n,13,0,2025-04-03_20h38.46.651,VisualSearchFaces,2024.2.4,MacIntel,58.82352941,,,,,,,,664.6981,664.8128,664.8129,666.8125,block1,j,0,0.4347,,1,33,73,20,1,0,centre,neutral,no_target,,,,,,,,,,,,,,,,
,,,,,796503,f,y,r,n,13,0,2025-04-03_20h38.46.651,VisualSearchFaces,2024.2.4,MacIntel,58.82352941,,,,,,,,667.8145,667.9301,667.9301,669.929,block1,j,1,0.8365,,1,34,74,11,1,1,top_left,friendly,neutral,,,,,,,,,,,,,,,,
,,,,,796503,f,y,r,n,13,0,2025-04-03_20h38.46.651,VisualSearchFaces,2024.2.4,MacIntel,58.82352941,,,,,,,,670.9305,671.0301,671.0301,673.0299,block1,f,1,0.6495,,1,35,75,34,1,0,bottom_right,friendly,no_target,,,,,,,,,,,,,,,,
,,,,,796503,f,y,r,n,13,0,2025-04-03_20h38.46.651,VisualSearchFaces,2024.2.4,MacIntel,58.82352941,,,,,,,,674.0304,674.1298,674.1298,676.1293,block1,j,1,0.4725,,1,36,76,5,1,1,centre,neutral,threatening,,,,,,,,,,,,,,,,
,,,,,796503,f,y,r,n,13,0,2025-04-03_20h38.46.651,VisualSearchFaces,2024.2.4,MacIntel,58.82352941,,,,,,,,677.1314,677.2459,677.246,679.2457,block1,j,1,0.4849,,1,37,77,16,1,1,top_left,threatening,neutral,,,,,,,,,,,,,,,,
,,,,,796503,f,y,r,n,13,0,2025-04-03_20h38.46.651,VisualSearchFaces,2024.2.4,MacIntel,58.82352941,,,,,,,,680.2475,680.3469,680.3469,682.3465,block1,j,1,0.5495,,1,38,78,9,1,1,bottom_right,neutral,threatening,,,,,,,,,,,,,,,,
,,,,,796503,f,y,r,n,13,0,2025-04-03_20h38.46.651,VisualSearchFaces,2024.2.4,MacIntel,58.82352941,,,,,,,,683.3479,683.4634,683.4635,685.4631,block1,f,1,0.5062,,1,39,79,36,1,0,top_left,threatening,no_target,,,,,,,,,,,,,,,,
,,,,,796503,f,y,r,n,13,0,2025-04-03_20h38.46.651,VisualSearchFaces,2024.2.4,MacIntel,58.82352941,,,719.491,724.9138,space,5.4012,,725.9145,726.0297,726.0297,728.0303,block2,j,1,0.5552,,0,0,0,1,1,1,top_left,neutral,friendly,685.4643,719.4804,space,33.9963,,,,,,,,,,,,
,,,,,796503,f,y,r,n,13,0,2025-04-03_20h38.46.651,VisualSearchFaces,2024.2.4,MacIntel,58.82352941,,,,,,,,729.031,729.1461,729.1462,731.1462,block2,j,0,0.5172,,0,1,1,31,1,0,top_left,friendly,no_target,,,,,,,,,,,,,,,,
,,,,,796503,f,y,r,n,13,0,2025-04-03_20h38.46.651,VisualSearchFaces,2024.2.4,MacIntel,58.82352941,,,,,,,,732.1481,732.2638,732.2638,734.2638,block2,j,1,0.4163,,0,2,2,4,1,1,bottom_right,neutral,friendly,,,,,,,,,,,,,,,,
,,,,,796503,f,y,r,n,13,0,2025-04-03_20h38.46.651,VisualSearchFaces,2024.2.4,MacIntel,58.82352941,,,,,,,,735.2639,735.3637,735.3637,737.3632,block2,f,1,0.8003,,0,3,3,33,1,0,bottom_left,friendly,no_target,,,,,,,,,,,,,,,,
,,,,,796503,f,y,r,n,13,0,2025-04-03_20h38.46.651,VisualSearchFaces,2024.2.4,MacIntel,58.82352941,,,,,,,,738.3645,738.4799,738.4799,740.4805,block2,f,1,0.4489,,0,4,4,20,1,0,centre,neutral,no_target,,,,,,,,,,,,,,,,
,,,,,796503,f,y,r,n,13,0,2025-04-03_20h38.46.651,VisualSearchFaces,2024.2.4,MacIntel,58.82352941,,,,,,,,741.4817,741.5966,741.5966,743.5966,block2,f,1,0.3862,,0,5,5,22,1,0,top_right,neutral,no_target,,,,,,,,,,,,,,,,
,,,,,796503,f,y,r,n,13,0,2025-04-03_20h38.46.651,VisualSearchFaces,2024.2.4,MacIntel,58.82352941,,,,,,,,744.5973,744.7134,744.7134,746.7138,block2,j,1,0.5505,,0,6,6,13,1,1,bottom_left,friendly,neutral,,,,,,,,,,,,,,,,
,,,,,796503,f,y,r,n,13,0,2025-04-03_20h38.46.651,VisualSearchFaces,2024.2.4,MacIntel,58.82352941,,,,,,,,747.7142,747.8297,747.8298,749.8302,block2,f,1,0.6004,,0,7,7,39,1,0,bottom_right,threatening,no_target,,,,,,,,,,,,,,,,
,,,,,796503,f,y,r,n,13,0,2025-04-03_20h38.46.651,VisualSearchFaces,2024.2.4,MacIntel,58.82352941,,,,,,,,750.8312,750.9463,750.9463,752.9471,block2,j,1,0.4663,,0,8,8,5,1,1,centre,neutral,threatening,,,,,,,,,,,,,,,,
,,,,,796503,f,y,r,n,13,0,2025-04-03_20h38.46.651,VisualSearchFaces,2024.2.4,MacIntel,58.82352941,,,,,,,,753.9477,754.0639,754.0639,756.0638,block2,f,1,0.4165,,0,9,9,25,1,0,centre,neutral,no_target,,,,,,,,,,,,,,,,
,,,,,796503,f,y,r,n,13,0,2025-04-03_20h38.46.651,VisualSearchFaces,2024.2.4,MacIntel,58.82352941,,,,,,,,757.0646,757.164,757.164,759.1632,block2,j,1,0.4494,,0,10,10,0,1,1,centre,neutral,friendly,,,,,,,,,,,,,,,,
,,,,,796503,f,y,r,n,13,0,2025-04-03_20h38.46.651,VisualSearchFaces,2024.2.4,MacIntel,58.82352941,,,,,,,,760.1649,760.2641,760.2641,762.2635,block2,j,1,0.5032,,0,11,11,7,1,1,top_right,neutral,threatening,,,,,,,,,,,,,,,,
,,,,,796503,f,y,r,n,13,0,2025-04-03_20h38.46.651,VisualSearchFaces,2024.2.4,MacIntel,58.82352941,,,,,,,,763.2651,763.3796,763.3797,765.3797,block2,f,1,0.4846,,0,12,12,30,1,0,centre,friendly,no_target,,,,,,,,,,,,,,,,
,,,,,796503,f,y,r,n,13,0,2025-04-03_20h38.46.651,VisualSearchFaces,2024.2.4,MacIntel,58.82352941,,,,,,,,766.3808,766.4807,766.4807,768.4807,block2,f,1,0.5849,,0,13,13,36,1,0,top_left,threatening,no_target,,,,,,,,,,,,,,,,
,,,,,796503,f,y,r,n,13,0,2025-04-03_20h38.46.651,VisualSearchFaces,2024.2.4,MacIntel,58.82352941,,,,,,,,769.4808,769.5808,769.5809,771.5807,block2,f,1,0.4161,,0,14,14,32,1,0,top_right,friendly,no_target,,,,,,,,,,,,,,,,
,,,,,796503,f,y,r,n,13,0,2025-04-03_20h38.46.651,VisualSearchFaces,2024.2.4,MacIntel,58.82352941,,,,,,,,772.5816,772.6969,772.6969,774.6968,block2,f,0,0.4496,,0,15,15,11,1,1,top_left,friendly,neutral,,,,,,,,,,,,,,,,
,,,,,796503,f,y,r,n,13,0,2025-04-03_20h38.46.651,VisualSearchFaces,2024.2.4,MacIntel,58.82352941,,,,,,,,775.6982,775.814,775.814,777.8138,block2,j,1,0.4658,,0,16,16,14,1,1,bottom_right,friendly,neutral,,,,,,,,,,,,,,,,
,,,,,796503,f,y,r,n,13,0,2025-04-03_20h38.46.651,VisualSearchFaces,2024.2.4,MacIntel,58.82352941,,,,,,,,778.8159,778.9306,778.9306,780.9302,block2,j,1,1.3714,,0,17,17,15,1,1,centre,threatening,neutral,,,,,,,,,,,,,,,,
,,,,,796503,f,y,r,n,13,0,2025-04-03_20h38.46.651,VisualSearchFaces,2024.2.4,MacIntel,58.82352941,,,,,,,,781.9319,782.0465,782.0466,784.0469,block2,f,1,0.4847,,0,18,18,34,1,0,bottom_right,friendly,no_target,,,,,,,,,,,,,,,,
,,,,,796503,f,y,r,n,13,0,2025-04-03_20h38.46.651,VisualSearchFaces,2024.2.4,MacIntel,58.82352941,,,,,,,,785.0494,785.1641,785.1642,787.1632,block2,f,1,0.438,,0,19,19,29,1,0,bottom_right,neutral,no_target,,,,,,,,,,,,,,,,
,,,,,796503,f,y,r,n,13,0,2025-04-03_20h38.46.651,VisualSearchFaces,2024.2.4,MacIntel,58.82352941,,,,,,,,788.1649,788.2637,788.2637,790.2632,block2,j,1,0.8185,,0,20,20,19,1,1,bottom_right,threatening,neutral,,,,,,,,,,,,,,,,
,,,,,796503,f,y,r,n,13,0,2025-04-03_20h38.46.651,VisualSearchFaces,2024.2.4,MacIntel,58.82352941,,,,,,,,791.2644,791.3641,791.3641,793.364,block2,f,1,0.5719,,0,21,21,24,1,0,bottom_right,neutral,no_target,,,,,,,,,,,,,,,,
,,,,,796503,f,y,r,n,13,0,2025-04-03_20h38.46.651,VisualSearchFaces,2024.2.4,MacIntel,58.82352941,,,,,,,,794.3644,794.4635,794.4635,796.4635,block2,j,1,0.4539,,0,22,22,3,1,1,bottom_left,neutral,friendly,,,,,,,,,,,,,,,,
,,,,,796503,f,y,r,n,13,0,2025-04-03_20h38.46.651,VisualSearchFaces,2024.2.4,MacIntel,58.82352941,,,,,,,,797.4649,797.5639,797.5639,799.5631,block2,j,1,0.5992,,0,23,23,10,1,1,centre,friendly,neutral,,,,,,,,,,,,,,,,
,,,,,796503,f,y,r,n,13,0,2025-04-03_20h38.46.651,VisualSearchFaces,2024.2.4,MacIntel,58.82352941,,,,,,,,800.5654,800.6809,800.6809,802.6807,block2,f,1,0.383,,0,24,24,23,1,0,bottom_left,neutral,no_target,,,,,,,,,,,,,,,,
,,,,,796503,f,y,r,n,13,0,2025-04-03_20h38.46.651,VisualSearchFaces,2024.2.4,MacIntel,58.82352941,,,,,,,,803.6828,803.7968,803.7968,805.7971,block2,j,1,0.4353,,0,25,25,6,1,1,top_left,neutral,threatening,,,,,,,,,,,,,,,,
,,,,,796503,f,y,r,n,13,0,2025-04-03_20h38.46.651,VisualSearchFaces,2024.2.4,MacIntel,58.82352941,,,,,,,,806.7984,806.9143,806.9143,808.9132,block2,f,1,0.6492,,0,26,26,37,1,0,top_right,threatening,no_target,,,,,,,,,,,,,,,,
,,,,,796503,f,y,r,n,13,0,2025-04-03_20h38.46.651,VisualSearchFaces,2024.2.4,MacIntel,58.82352941,,,,,,,,809.9156,810.0143,810.0143,812.0138,block2,j,1,0.5147,,0,27,27,18,1,1,bottom_left,threatening,neutral,,,,,,,,,,,,,,,,
,,,,,796503,f,y,r,n,13,0,2025-04-03_20h38.46.651,VisualSearchFaces,2024.2.4,MacIntel,58.82352941,,,,,,,,813.015,813.1141,813.1141,815.1137,block2,f,1,0.5668,,0,28,28,35,1,0,centre,threatening,no_target,,,,,,,,,,,,,,,,
,,,,,796503,f,y,r,n,13,0,2025-04-03_20h38.46.651,VisualSearchFaces,2024.2.4,MacIntel,58.82352941,,,,,,,,816.115,816.2309,816.2309,818.2309,block2,j,0,0.4349,,0,29,29,27,1,0,top_right,neutral,no_target,,,,,,,,,,,,,,,,
,,,,,796503,f,y,r,n,13,0,2025-04-03_20h38.46.651,VisualSearchFaces,2024.2.4,MacIntel,58.82352941,,,,,,,,819.2315,819.347,819.347,821.3469,block2,f,1,0.6828,,0,30,30,38,1,0,bottom_left,threatening,no_target,,,,,,,,,,,,,,,,
,,,,,796503,f,y,r,n,13,0,2025-04-03_20h38.46.651,VisualSearchFaces,2024.2.4,MacIntel,58.82352941,,,,,,,,822.3479,822.4472,822.4472,824.4472,block2,f,1,0.4685,,0,31,31,26,1,0,top_left,neutral,no_target,,,,,,,,,,,,,,,,
,,,,,796503,f,y,r,n,13,0,2025-04-03_20h38.46.651,VisualSearchFaces,2024.2.4,MacIntel,58.82352941,,,,,,,,825.4481,825.5476,825.5477,827.5476,block2,f,1,0.5676,,0,32,32,28,1,0,bottom_left,neutral,no_target,,,,,,,,,,,,,,,,
,,,,,796503,f,y,r,n,13,0,2025-04-03_20h38.46.651,VisualSearchFaces,2024.2.4,MacIntel,58.82352941,,,,,,,,828.548,828.6472,828.6472,830.6466,block2,j,1,0.4681,,0,33,33,9,1,1,bottom_right,neutral,threatening,,,,,,,,,,,,,,,,
,,,,,796503,f,y,r,n,13,0,2025-04-03_20h38.46.651,VisualSearchFaces,2024.2.4,MacIntel,58.82352941,,,,,,,,831.6483,831.7477,831.7477,833.7469,block2,f,0,0.3862,,0,34,34,8,1,1,bottom_left,neutral,threatening,,,,,,,,,,,,,,,,
,,,,,796503,f,y,r,n,13,0,2025-04-03_20h38.46.651,VisualSearchFaces,2024.2.4,MacIntel,58.82352941,,,,,,,,834.748,834.8472,834.8472,836.8467,block2,f,0,0.6176,,0,35,35,16,1,1,top_left,threatening,neutral,,,,,,,,,,,,,,,,
,,,,,796503,f,y,r,n,13,0,2025-04-03_20h38.46.651,VisualSearchFaces,2024.2.4,MacIntel,58.82352941,,,,,,,,837.8484,837.9477,837.9477,839.9469,block2,j,1,0.4501,,0,36,36,2,1,1,top_right,neutral,friendly,,,,,,,,,,,,,,,,
,,,,,796503,f,y,r,n,13,0,2025-04-03_20h38.46.651,VisualSearchFaces,2024.2.4,MacIntel,58.82352941,,,,,,,,840.9485,841.0643,841.0643,843.0639,block2,f,1,0.4491,,0,37,37,21,1,0,top_left,neutral,no_target,,,,,,,,,,,,,,,,
,,,,,796503,f,y,r,n,13,0,2025-04-03_20h38.46.651,VisualSearchFaces,2024.2.4,MacIntel,58.82352941,,,,,,,,844.0651,844.1805,844.1805,846.1804,block2,j,1,0.433,,0,38,38,17,1,1,top_right,threatening,neutral,,,,,,,,,,,,,,,,
,,,,,796503,f,y,r,n,13,0,2025-04-03_20h38.46.651,VisualSearchFaces,2024.2.4,MacIntel,58.82352941,,,,,,,,847.1823,847.2968,847.2969,849.2973,block2,j,1,0.4216,,0,39,39,12,1,1,top_right,friendly,neutral,,,,,,,,,,,,,,,,
,,,,,796503,f,y,r,n,13,0,2025-04-03_20h38.46.651,VisualSearchFaces,2024.2.4,MacIntel,58.82352941,,,,,,,,850.2985,850.4138,850.4138,852.4135,block2,j,1,0.5998,,1,0,40,11,1,1,top_left,friendly,neutral,,,,,,,,,,,,,,,,
,,,,,796503,f,y,r,n,13,0,2025-04-03_20h38.46.651,VisualSearchFaces,2024.2.4,MacIntel,58.82352941,,,,,,,,853.4151,853.5308,853.5308,855.5302,block2,j,1,0.3504,,1,1,41,16,1,1,top_left,threatening,neutral,,,,,,,,,,,,,,,,
,,,,,796503,f,y,r,n,13,0,2025-04-03_20h38.46.651,VisualSearchFaces,2024.2.4,MacIntel,58.82352941,,,,,,,,856.5318,856.6308,856.6308,858.631,block2,f,1,0.5663,,1,2,42,24,1,0,bottom_right,neutral,no_target,,,,,,,,,,,,,,,,
,,,,,796503,f,y,r,n,13,0,2025-04-03_20h38.46.651,VisualSearchFaces,2024.2.4,MacIntel,58.82352941,,,,,,,,859.6318,859.7308,859.7308,861.7303,block2,j,1,0.3991,,1,3,43,1,1,1,top_left,neutral,friendly,,,,,,,,,,,,,,,,
,,,,,796503,f,y,r,n,13,0,2025-04-03_20h38.46.651,VisualSearchFaces,2024.2.4,MacIntel,58.82352941,,,,,,,,862.7322,862.8478,862.8478,864.8478,block2,j,1,0.4162,,1,4,44,3,1,1,bottom_left,neutral,friendly,,,,,,,,,,,,,,,,
,,,,,796503,f,y,r,n,13,0,2025-04-03_20h38.46.651,VisualSearchFaces,2024.2.4,MacIntel,58.82352941,,,,,,,,865.8483,865.9637,865.9638,867.9637,block2,j,1,0.3165,,1,5,45,9,1,1,bottom_right,neutral,threatening,,,,,,,,,,,,,,,,
,,,,,796503,f,y,r,n,13,0,2025-04-03_20h38.46.651,VisualSearchFaces,2024.2.4,MacIntel,58.82352941,,,,,,,,868.9655,869.0808,869.0809,871.0803,block2,j,1,0.4207,,1,6,46,4,1,1,bottom_right,neutral,friendly,,,,,,,,,,,,,,,,
,,,,,796503,f,y,r,n,13,0,2025-04-03_20h38.46.651,VisualSearchFaces,2024.2.4,MacIntel,58.82352941,,,,,,,,872.0822,872.1979,872.1979,874.1972,block2,f,1,0.6821,,1,7,47,37,1,0,top_right,threatening,no_target,,,,,,,,,,,,,,,,
,,,,,796503,f,y,r,n,13,0,2025-04-03_20h38.46.651,VisualSearchFaces,2024.2.4,MacIntel,58.82352941,,,,,,,,875.1979,875.2979,875.2979,877.2974,block2,j,1,0.6704,,1,8,48,14,1,1,bottom_right,friendly,neutral,,,,,,,,,,,,,,,,
,,,,,796503,f,y,r,n,13,0,2025-04-03_20h38.46.651,VisualSearchFaces,2024.2.4,MacIntel,58.82352941,,,,,,,,878.2983,878.3979,878.3979,880.3973,block2,j,1,0.4296,,1,9,49,15,1,1,centre,threatening,neutral,,,,,,,,,,,,,,,,
,,,,,796503,f,y,r,n,13,0,2025-04-03_20h38.46.651,VisualSearchFaces,2024.2.4,MacIntel,58.82352941,,,,,,,,881.398,881.4971,881.4971,883.497,block2,f,1,0.4667,,1,10,50,22,1,0,top_right,neutral,no_target,,,,,,,,,,,,,,,,
,,,,,796503,f,y,r,n,13,0,2025-04-03_20h38.46.651,VisualSearchFaces,2024.2.4,MacIntel,58.82352941,,,,,,,,884.4986,885.5517,885.5517,887.5479,block2,f,1,0.782,,1,11,51,32,1,0,top_right,friendly,no_target,,,,,,,,,,,,,,,,
,,,,,796503,f,y,r,n,13,0,2025-04-03_20h38.46.651,VisualSearchFaces,2024.2.4,MacIntel,58.82352941,,,,,,,,888.5482,888.6474,888.6474,890.6478,block2,f,1,0.5327,,1,12,52,33,1,0,bottom_left,friendly,no_target,,,,,,,,,,,,,,,,
,,,,,796503,f,y,r,n,13,0,2025-04-03_20h38.46.651,VisualSearchFaces,2024.2.4,MacIntel,58.82352941,,,,,,,,891.6488,891.7479,891.7479,893.7471,block2,j,1,0.4205,,1,13,53,2,1,1,top_right,neutral,friendly,,,,,,,,,,,,,,,,
,,,,,796503,f,y,r,n,13,0,2025-04-03_20h38.46.651,VisualSearchFaces,2024.2.4,MacIntel,58.82352941,,,,,,,,894.7482,894.8637,894.8638,896.8643,block2,f,0,0.5702,,1,14,54,19,1,1,bottom_right,threatening,neutral,,,,,,,,,,,,,,,,
,,,,,796503,f,y,r,n,13,0,2025-04-03_20h38.46.651,VisualSearchFaces,2024.2.4,MacIntel,58.82352941,,,,,,,,897.8655,897.9647,897.9647,899.9639,block2,f,1,0.5983,,1,15,55,28,1,0,bottom_left,neutral,no_target,,,,,,,,,,,,,,,,
,,,,,796503,f,y,r,n,13,0,2025-04-03_20h38.46.651,VisualSearchFaces,2024.2.4,MacIntel,58.82352941,,,,,,,,900.9652,901.0649,901.0649,903.0637,block2,f,1,0.5326,,1,16,56,38,1,0,bottom_left,threatening,no_target,,,,,,,,,,,,,,,,
,,,,,796503,f,y,r,n,13,0,2025-04-03_20h38.46.651,VisualSearchFaces,2024.2.4,MacIntel,58.82352941,,,,,,,,904.0662,904.1803,904.1804,906.1805,block2,f,1,0.4669,,1,17,57,25,1,0,centre,neutral,no_target,,,,,,,,,,,,,,,,
,,,,,796503,f,y,r,n,13,0,2025-04-03_20h38.46.651,VisualSearchFaces,2024.2.4,MacIntel,58.82352941,,,,,,,,907.1817,907.2808,907.2808,909.2812,block2,f,1,0.5227,,1,18,58,31,1,0,top_left,friendly,no_target,,,,,,,,,,,,,,,,
,,,,,796503,f,y,r,n,13,0,2025-04-03_20h38.46.651,VisualSearchFaces,2024.2.4,MacIntel,58.82352941,,,,,,,,910.282,910.3981,910.3982,912.3974,block2,f,1,0.3984,,1,19,59,21,1,0,top_left,neutral,no_target,,,,,,,,,,,,,,,,
,,,,,796503,f,y,r,n,13,0,2025-04-03_20h38.46.651,VisualSearchFaces,2024.2.4,MacIntel,58.82352941,,,,,,,,913.3991,913.4981,913.4981,915.4973,block2,f,1,0.4655,,1,20,60,34,1,0,bottom_right,friendly,no_target,,,,,,,,,,,,,,,,
,,,,,796503,f,y,r,n,13,0,2025-04-03_20h38.46.651,VisualSearchFaces,2024.2.4,MacIntel,58.82352941,,,,,,,,916.499,916.5984,916.5984,918.5981,block2,j,1,0.4695,,1,21,61,17,1,1,top_right,threatening,neutral,,,,,,,,,,,,,,,,
,,,,,796503,f,y,r,n,13,0,2025-04-03_20h38.46.651,VisualSearchFaces,2024.2.4,MacIntel,58.82352941,,,,,,,,919.5989,919.6982,919.6982,921.6981,block2,f,1,0.5008,,1,22,62,27,1,0,top_right,neutral,no_target,,,,,,,,,,,,,,,,
,,,,,796503,f,y,r,n,13,0,2025-04-03_20h38.46.651,VisualSearchFaces,2024.2.4,MacIntel,58.82352941,,,,,,,,922.6994,922.8148,922.8148,924.8148,block2,f,1,0.5178,,1,23,63,29,1,0,bottom_right,neutral,no_target,,,,,,,,,,,,,,,,
,,,,,796503,f,y,r,n,13,0,2025-04-03_20h38.46.651,VisualSearchFaces,2024.2.4,MacIntel,58.82352941,,,,,,,,925.8155,925.9149,925.9149,927.9145,block2,f,1,0.9327,,1,24,64,36,1,0,top_left,threatening,no_target,,,,,,,,,,,,,,,,
,,,,,796503,f,y,r,n,13,0,2025-04-03_20h38.46.651,VisualSearchFaces,2024.2.4,MacIntel,58.82352941,,,,,,,,928.9153,929.0148,929.0148,931.0149,block2,f,1,0.4653,,1,25,65,20,1,0,centre,neutral,no_target,,,,,,,,,,,,,,,,
,,,,,796503,f,y,r,n,13,0,2025-04-03_20h38.46.651,VisualSearchFaces,2024.2.4,MacIntel,58.82352941,,,,,,,,932.0159,932.1313,932.1313,934.1306,block2,j,1,0.4157,,1,26,66,10,1,1,centre,friendly,neutral,,,,,,,,,,,,,,,,
,,,,,796503,f,y,r,n,13,0,2025-04-03_20h38.46.651,VisualSearchFaces,2024.2.4,MacIntel,58.82352941,,,,,,,,935.1322,935.2311,935.2311,937.2306,block2,f,0,0.6665,,1,27,67,18,1,1,bottom_left,threatening,neutral,,,,,,,,,,,,,,,,
,,,,,796503,f,y,r,n,13,0,2025-04-03_20h38.46.651,VisualSearchFaces,2024.2.4,MacIntel,58.82352941,,,,,,,,938.2328,938.348,938.348,940.3482,block2,f,1,0.6672,,1,28,68,26,1,0,top_left,neutral,no_target,,,,,,,,,,,,,,,,
,,,,,796503,f,y,r,n,13,0,2025-04-03_20h38.46.651,VisualSearchFaces,2024.2.4,MacIntel,58.82352941,,,,,,,,941.3489,941.4642,941.4642,943.4649,block2,j,1,0.4157,,1,29,69,5,1,1,centre,neutral,threatening,,,,,,,,,,,,,,,,
,,,,,796503,f,y,r,n,13,0,2025-04-03_20h38.46.651,VisualSearchFaces,2024.2.4,MacIntel,58.82352941,,,,,,,,944.4649,944.5649,944.5649,946.5649,block2,f,1,0.5999,,1,30,70,30,1,0,centre,friendly,no_target,,,,,,,,,,,,,,,,
,,,,,796503,f,y,r,n,13,0,2025-04-03_20h38.46.651,VisualSearchFaces,2024.2.4,MacIntel,58.82352941,,,,,,,,947.566,947.6815,947.6815,949.681,block2,j,1,0.4678,,1,31,71,13,1,1,bottom_left,friendly,neutral,,,,,,,,,,,,,,,,
,,,,,796503,f,y,r,n,13,0,2025-04-03_20h38.46.651,VisualSearchFaces,2024.2.4,MacIntel,58.82352941,,,,,,,,950.6834,950.7974,950.7974,952.7973,block2,f,0,0.4184,,1,32,72,8,1,1,bottom_left,neutral,threatening,,,,,,,,,,,,,,,,
,,,,,796503,f,y,r,n,13,0,2025-04-03_20h38.46.651,VisualSearchFaces,2024.2.4,MacIntel,58.82352941,,,,,,,,953.7993,953.915,953.915,955.9151,block2,f,1,0.615,,1,33,73,39,1,0,bottom_right,threatening,no_target,,,,,,,,,,,,,,,,
,,,,,796503,f,y,r,n,13,0,2025-04-03_20h38.46.651,VisualSearchFaces,2024.2.4,MacIntel,58.82352941,,,,,,,,956.9163,957.0313,957.0313,959.0307,block2,j,0,0.4841,,1,34,74,23,1,0,bottom_left,neutral,no_target,,,,,,,,,,,,,,,,
,,,,,796503,f,y,r,n,13,0,2025-04-03_20h38.46.651,VisualSearchFaces,2024.2.4,MacIntel,58.82352941,,,,,,,,960.0322,960.1312,960.1312,962.1312,block2,j,1,0.5011,,1,35,75,6,1,1,top_left,neutral,threatening,,,,,,,,,,,,,,,,
,,,,,796503,f,y,r,n,13,0,2025-04-03_20h38.46.651,VisualSearchFaces,2024.2.4,MacIntel,58.82352941,,,,,,,,963.1324,963.2484,963.2484,965.2484,block2,j,1,0.5522,,1,36,76,12,1,1,top_right,friendly,neutral,,,,,,,,,,,,,,,,
,,,,,796503,f,y,r,n,13,0,2025-04-03_20h38.46.651,VisualSearchFaces,2024.2.4,MacIntel,58.82352941,,,,,,,,966.249,966.3641,966.3642,968.3645,block2,f,1,0.568,,1,37,77,35,1,0,centre,threatening,no_target,,,,,,,,,,,,,,,,
,,,,,796503,f,y,r,n,13,0,2025-04-03_20h38.46.651,VisualSearchFaces,2024.2.4,MacIntel,58.82352941,,,,,,,,969.3656,969.4649,969.4649,971.4649,block2,j,1,0.5371,,1,38,78,7,1,1,top_right,neutral,threatening,,,,,,,,,,,,,,,,
,,,,,796503,f,y,r,n,13,0,2025-04-03_20h38.46.651,VisualSearchFaces,2024.2.4,MacIntel,58.82352941,,,,,,,,972.4664,972.5813,972.5813,974.5809,block2,j,1,0.489,,1,39,79,0,1,1,centre,neutral,friendly,,,,,,,,,,,,,,,,
,,,,,796503,f,y,r,n,13,0,2025-04-03_20h38.46.651,VisualSearchFaces,2024.2.4,MacIntel,58.82352941,,,981.5584,1008.2309,space,26.6518,,1009.2322,1009.3477,1009.3478,1011.3485,block3,j,0,0.8231,,0,0,0,35,1,0,centre,threatening,no_target,974.5823,981.5478,space,6.9441,,,,,,,,,,,,
,,,,,796503,f,y,r,n,13,0,2025-04-03_20h38.46.651,VisualSearchFaces,2024.2.4,MacIntel,58.82352941,,,,,,,,1012.3497,1012.4647,1012.4647,1014.4645,block3,j,1,0.5827,,0,1,1,18,1,1,bottom_left,threatening,neutral,,,,,,,,,,,,,,,,
,,,,,796503,f,y,r,n,13,0,2025-04-03_20h38.46.651,VisualSearchFaces,2024.2.4,MacIntel,58.82352941,,,,,,,,1015.4654,1015.5814,1015.5815,1017.5819,block3,f,1,0.423,,0,2,2,33,1,0,bottom_left,friendly,no_target,,,,,,,,,,,,,,,,
,,,,,796503,f,y,r,n,13,0,2025-04-03_20h38.46.651,VisualSearchFaces,2024.2.4,MacIntel,58.82352941,,,,,,,,1018.5832,1018.6989,1018.6989,1020.6987,block3,f,1,0.4988,,0,3,3,23,1,0,bottom_left,neutral,no_target,,,,,,,,,,,,,,,,
,,,,,796503,f,y,r,n,13,0,2025-04-03_20h38.46.651,VisualSearchFaces,2024.2.4,MacIntel,58.82352941,,,,,,,,1021.7004,1021.8148,1021.8148,1023.8144,block3,f,1,0.6356,,0,4,4,38,1,0,bottom_left,threatening,no_target,,,,,,,,,,,,,,,,
,,,,,796503,f,y,r,n,13,0,2025-04-03_20h38.46.651,VisualSearchFaces,2024.2.4,MacIntel,58.82352941,,,,,,,,1024.8165,1024.9311,1024.9312,1026.9312,block3,f,1,0.4495,,0,5,5,30,1,0,centre,friendly,no_target,,,,,,,,,,,,,,,,
,,,,,796503,f,y,r,n,13,0,2025-04-03_20h38.46.651,VisualSearchFaces,2024.2.4,MacIntel,58.82352941,,,,,,,,1027.9334,1028.0487,1028.0488,1030.0478,block3,f,1,0.4322,,0,6,6,21,1,0,top_left,neutral,no_target,,,,,,,,,,,,,,,,
,,,,,796503,f,y,r,n,13,0,2025-04-03_20h38.46.651,VisualSearchFaces,2024.2.4,MacIntel,58.82352941,,,,,,,,1031.0488,1031.1487,1031.1488,1033.1486,block3,f,1,0.4324,,0,7,7,25,1,0,centre,neutral,no_target,,,,,,,,,,,,,,,,
,,,,,796503,f,y,r,n,13,0,2025-04-03_20h38.46.651,VisualSearchFaces,2024.2.4,MacIntel,58.82352941,,,,,,,,1034.1503,1034.2646,1034.2646,1036.2644,block3,j,1,0.4387,,0,8,8,11,1,1,top_left,friendly,neutral,,,,,,,,,,,,,,,,
,,,,,796503,f,y,r,n,13,0,2025-04-03_20h38.46.651,VisualSearchFaces,2024.2.4,MacIntel,58.82352941,,,,,,,,1037.2664,1037.3814,1037.3815,1039.382,block3,j,1,0.5159,,0,9,9,16,1,1,top_left,threatening,neutral,,,,,,,,,,,,,,,,
,,,,,796503,f,y,r,n,13,0,2025-04-03_20h38.46.651,VisualSearchFaces,2024.2.4,MacIntel,58.82352941,,,,,,,,1040.3831,1040.4822,1040.4822,1042.4822,block3,j,1,0.649,,0,10,10,3,1,1,bottom_left,neutral,friendly,,,,,,,,,,,,,,,,
,,,,,796503,f,y,r,n,13,0,2025-04-03_20h38.46.651,VisualSearchFaces,2024.2.4,MacIntel,58.82352941,,,,,,,,1043.4824,1043.5821,1043.5821,1045.5811,block3,j,1,0.4164,,0,11,11,6,1,1,top_left,neutral,threatening,,,,,,,,,,,,,,,,
,,,,,796503,f,y,r,n,13,0,2025-04-03_20h38.46.651,VisualSearchFaces,2024.2.4,MacIntel,58.82352941,,,,,,,,1046.5831,1046.6821,1046.6821,1048.6812,block3,j,1,0.2993,,0,12,12,8,1,1,bottom_left,neutral,threatening,,,,,,,,,,,,,,,,
,,,,,796503,f,y,r,n,13,0,2025-04-03_20h38.46.651,VisualSearchFaces,2024.2.4,MacIntel,58.82352941,,,,,,,,1049.6824,1049.7816,1049.7816,1051.7818,block3,j,0,0.3499,,0,13,13,36,1,0,top_left,threatening,no_target,,,,,,,,,,,,,,,,
,,,,,796503,f,y,r,n,13,0,2025-04-03_20h38.46.651,VisualSearchFaces,2024.2.4,MacIntel,58.82352941,,,,,,,,1052.7825,1052.8817,1052.8817,1054.8815,block3,j,1,0.5166,,0,14,14,13,1,1,bottom_left,friendly,neutral,,,,,,,,,,,,,,,,
,,,,,796503,f,y,r,n,13,0,2025-04-03_20h38.46.651,VisualSearchFaces,2024.2.4,MacIntel,58.82352941,,,,,,,,1055.8824,1055.9823,1055.9824,1057.9818,block3,f,1,0.4184,,0,15,15,39,1,0,bottom_right,threatening,no_target,,,,,,,,,,,,,,,,
,,,,,796503,f,y,r,n,13,0,2025-04-03_20h38.46.651,VisualSearchFaces,2024.2.4,MacIntel,58.82352941,,,,,,,,1058.9836,1059.0824,1059.0824,1061.0819,block3,f,0,0.6477,,0,16,16,15,1,1,centre,threatening,neutral,,,,,,,,,,,,,,,,
,,,,,796503,f,y,r,n,13,0,2025-04-03_20h38.46.651,VisualSearchFaces,2024.2.4,MacIntel,58.82352941,,,,,,,,1062.0828,1062.1822,1062.1822,1064.182,block3,j,1,0.5213,,0,17,17,12,1,1,top_right,friendly,neutral,,,,,,,,,,,,,,,,
,,,,,796503,f,y,r,n,13,0,2025-04-03_20h38.46.651,VisualSearchFaces,2024.2.4,MacIntel,58.82352941,,,,,,,,1065.1831,1065.2991,1065.2991,1067.2979,block3,f,1,0.5161,,0,18,18,37,1,0,top_right,threatening,no_target,,,,,,,,,,,,,,,,
,,,,,796503,f,y,r,n,13,0,2025-04-03_20h38.46.651,VisualSearchFaces,2024.2.4,MacIntel,58.82352941,,,,,,,,1068.3004,1068.4147,1068.4148,1070.4152,block3,f,1,0.4677,,0,19,19,26,1,0,top_left,neutral,no_target,,,,,,,,,,,,,,,,
,,,,,796503,f,y,r,n,13,0,2025-04-03_20h38.46.651,VisualSearchFaces,2024.2.4,MacIntel,58.82352941,,,,,,,,1071.4164,1071.5156,1071.5156,1073.5153,block3,j,1,0.4484,,0,20,20,4,1,1,bottom_right,neutral,friendly,,,,,,,,,,,,,,,,
,,,,,796503,f,y,r,n,13,0,2025-04-03_20h38.46.651,VisualSearchFaces,2024.2.4,MacIntel,58.82352941,,,,,,,,1074.5166,1074.6155,1074.6155,1076.6154,block3,f,1,0.5834,,0,21,21,31,1,0,top_left,friendly,no_target,,,,,,,,,,,,,,,,
,,,,,796503,f,y,r,n,13,0,2025-04-03_20h38.46.651,VisualSearchFaces,2024.2.4,MacIntel,58.82352941,,,,,,,,1077.6163,1077.7315,1077.7315,1079.7322,block3,j,1,0.3837,,0,22,22,2,1,1,top_right,neutral,friendly,,,,,,,,,,,,,,,,
,,,,,796503,f,y,r,n,13,0,2025-04-03_20h38.46.651,VisualSearchFaces,2024.2.4,MacIntel,58.82352941,,,,,,,,1080.7338,1080.8486,1080.8487,1082.8487,block3,j,1,0.3842,,0,23,23,7,1,1,top_right,neutral,threatening,,,,,,,,,,,,,,,,
,,,,,796503,f,y,r,n,13,0,2025-04-03_20h38.46.651,VisualSearchFaces,2024.2.4,MacIntel,58.82352941,,,,,,,,1083.8499,1083.9656,1083.9656,1085.9652,block3,f,0,0.5659,,0,24,24,19,1,1,bottom_right,threatening,neutral,,,,,,,,,,,,,,,,
,,,,,796503,f,y,r,n,13,0,2025-04-03_20h38.46.651,VisualSearchFaces,2024.2.4,MacIntel,58.82352941,,,,,,,,1086.9668,1087.0822,1087.0823,1089.0823,block3,f,1,0.4495,,0,25,25,22,1,0,top_right,neutral,no_target,,,,,,,,,,,,,,,,
,,,,,796503,f,y,r,n,13,0,2025-04-03_20h38.46.651,VisualSearchFaces,2024.2.4,MacIntel,58.82352941,,,,,,,,1090.0831,1090.1819,1090.1819,1092.182,block3,j,1,0.4172,,0,26,26,5,1,1,centre,neutral,threatening,,,,,,,,,,,,,,,,
,,,,,796503,f,y,r,n,13,0,2025-04-03_20h38.46.651,VisualSearchFaces,2024.2.4,MacIntel,58.82352941,,,,,,,,1093.1833,1093.2985,1093.2985,1095.2984,block3,j,1,0.384,,0,27,27,1,1,1,top_left,neutral,friendly,,,,,,,,,,,,,,,,
,,,,,796503,f,y,r,n,13,0,2025-04-03_20h38.46.651,VisualSearchFaces,2024.2.4,MacIntel,58.82352941,,,,,,,,1096.2996,1096.399,1096.399,1098.3984,block3,j,1,0.4848,,0,28,28,14,1,1,bottom_right,friendly,neutral,,,,,,,,,,,,,,,,
,,,,,796503,f,y,r,n,13,0,2025-04-03_20h38.46.651,VisualSearchFaces,2024.2.4,MacIntel,58.82352941,,,,,,,,1099.3995,1099.5155,1099.5155,1101.516,block3,j,1,0.417,,0,29,29,0,1,1,centre,neutral,friendly,,,,,,,,,,,,,,,,
,,,,,796503,f,y,r,n,13,0,2025-04-03_20h38.46.651,VisualSearchFaces,2024.2.4,MacIntel,58.82352941,,,,,,,,1102.5167,1102.6315,1102.6316,1104.6325,block3,j,1,0.354,,0,30,30,9,1,1,bottom_right,neutral,threatening,,,,,,,,,,,,,,,,
,,,,,796503,f,y,r,n,13,0,2025-04-03_20h38.46.651,VisualSearchFaces,2024.2.4,MacIntel,58.82352941,,,,,,,,1105.6335,1105.7489,1105.7489,1107.7483,block3,f,1,0.487,,0,31,31,24,1,0,bottom_right,neutral,no_target,,,,,,,,,,,,,,,,
,,,,,796503,f,y,r,n,13,0,2025-04-03_20h38.46.651,VisualSearchFaces,2024.2.4,MacIntel,58.82352941,,,,,,,,1108.7498,1108.8492,1108.8492,1110.8485,block3,f,1,0.4669,,0,32,32,29,1,0,bottom_right,neutral,no_target,,,,,,,,,,,,,,,,
,,,,,796503,f,y,r,n,13,0,2025-04-03_20h38.46.651,VisualSearchFaces,2024.2.4,MacIntel,58.82352941,,,,,,,,1111.8506,1111.9659,1111.9659,1113.9656,block3,f,1,0.3844,,0,33,33,27,1,0,top_right,neutral,no_target,,,,,,,,,,,,,,,,
,,,,,796503,f,y,r,n,13,0,2025-04-03_20h38.46.651,VisualSearchFaces,2024.2.4,MacIntel,58.82352941,,,,,,,,1114.9668,1115.0825,1115.0825,1117.0818,block3,j,1,0.4055,,0,34,34,10,1,1,centre,friendly,neutral,,,,,,,,,,,,,,,,
,,,,,796503,f,y,r,n,13,0,2025-04-03_20h38.46.651,VisualSearchFaces,2024.2.4,MacIntel,58.82352941,,,,,,,,1118.0827,1118.1824,1118.1825,1120.1815,block3,f,1,0.5669,,0,35,35,32,1,0,top_right,friendly,no_target,,,,,,,,,,,,,,,,
,,,,,796503,f,y,r,n,13,0,2025-04-03_20h38.46.651,VisualSearchFaces,2024.2.4,MacIntel,58.82352941,,,,,,,,1121.1836,1121.2826,1121.2826,1123.2821,block3,f,1,0.4337,,0,36,36,20,1,0,centre,neutral,no_target,,,,,,,,,,,,,,,,
,,,,,796503,f,y,r,n,13,0,2025-04-03_20h38.46.651,VisualSearchFaces,2024.2.4,MacIntel,58.82352941,,,,,,,,1124.283,1124.3825,1124.3826,1126.3826,block3,f,1,0.3535,,0,37,37,28,1,0,bottom_left,neutral,no_target,,,,,,,,,,,,,,,,
,,,,,796503,f,y,r,n,13,0,2025-04-03_20h38.46.651,VisualSearchFaces,2024.2.4,MacIntel,58.82352941,,,,,,,,1127.3837,1127.4826,1127.4826,1129.4826,block3,f,1,0.448,,0,38,38,34,1,0,bottom_right,friendly,no_target,,,,,,,,,,,,,,,,
,,,,,796503,f,y,r,n,13,0,2025-04-03_20h38.46.651,VisualSearchFaces,2024.2.4,MacIntel,58.82352941,,,,,,,,1130.4847,1130.5985,1130.5985,1132.5992,block3,j,1,0.5901,,0,39,39,17,1,1,top_right,threatening,neutral,,,,,,,,,,,,,,,,
,,,,,796503,f,y,r,n,13,0,2025-04-03_20h38.46.651,VisualSearchFaces,2024.2.4,MacIntel,58.82352941,,,,,,,,1133.6004,1133.6994,1133.6994,1135.6989,block3,f,1,0.3871,,1,0,40,35,1,0,centre,threatening,no_target,,,,,,,,,,,,,,,,
,,,,,796503,f,y,r,n,13,0,2025-04-03_20h38.46.651,VisualSearchFaces,2024.2.4,MacIntel,58.82352941,,,,,,,,1136.6993,1136.8154,1136.8154,1138.8159,block3,j,1,0.3712,,1,1,41,1,1,1,top_left,neutral,friendly,,,,,,,,,,,,,,,,
,,,,,796503,f,y,r,n,13,0,2025-04-03_20h38.46.651,VisualSearchFaces,2024.2.4,MacIntel,58.82352941,,,,,,,,1139.8165,1139.9317,1139.9317,1141.9324,block3,f,1,0.4892,,1,2,42,21,1,0,top_left,neutral,no_target,,,,,,,,,,,,,,,,
,,,,,796503,f,y,r,n,13,0,2025-04-03_20h38.46.651,VisualSearchFaces,2024.2.4,MacIntel,58.82352941,,,,,,,,1142.9335,1143.0487,1143.0487,1145.0483,block3,j,1,0.3998,,1,3,43,12,1,1,top_right,friendly,neutral,,,,,,,,,,,,,,,,
,,,,,796503,f,y,r,n,13,0,2025-04-03_20h38.46.651,VisualSearchFaces,2024.2.4,MacIntel,58.82352941,,,,,,,,1146.0504,1146.166,1146.166,1148.165,block3,f,0,0.6332,,1,4,44,15,1,1,centre,threatening,neutral,,,,,,,,,,,,,,,,
,,,,,796503,f,y,r,n,13,0,2025-04-03_20h38.46.651,VisualSearchFaces,2024.2.4,MacIntel,58.82352941,,,,,,,,1149.167,1149.2817,1149.2817,1151.2818,block3,f,1,0.7378,,1,5,45,32,1,0,top_right,friendly,no_target,,,,,,,,,,,,,,,,
,,,,,796503,f,y,r,n,13,0,2025-04-03_20h38.46.651,VisualSearchFaces,2024.2.4,MacIntel,58.82352941,,,,,,,,1152.2834,1152.3988,1152.3988,1154.399,block3,f,1,0.5896,,1,6,46,37,1,0,top_right,threatening,no_target,,,,,,,,,,,,,,,,
,,,,,796503,f,y,r,n,13,0,2025-04-03_20h38.46.651,VisualSearchFaces,2024.2.4,MacIntel,58.82352941,,,,,,,,1155.3999,1155.4993,1155.4993,1157.4994,block3,j,1,0.4715,,1,7,47,2,1,1,top_right,neutral,friendly,,,,,,,,,,,,,,,,
,,,,,796503,f,y,r,n,13,0,2025-04-03_20h38.46.651,VisualSearchFaces,2024.2.4,MacIntel,58.82352941,,,,,,,,1158.5003,1158.5993,1158.5994,1160.5987,block3,f,1,0.483,,1,8,48,36,1,0,top_left,threatening,no_target,,,,,,,,,,,,,,,,
,,,,,796503,f,y,r,n,13,0,2025-04-03_20h38.46.651,VisualSearchFaces,2024.2.4,MacIntel,58.82352941,,,,,,,,1161.6005,1161.7158,1161.7158,1163.7154,block3,f,1,1.1827,,1,9,49,22,1,0,top_right,neutral,no_target,,,,,,,,,,,,,,,,
,,,,,796503,f,y,r,n,13,0,2025-04-03_20h38.46.651,VisualSearchFaces,2024.2.4,MacIntel,58.82352941,,,,,,,,1164.7165,1164.8161,1164.8161,1166.8159,block3,j,1,0.5332,,1,10,50,11,1,1,top_left,friendly,neutral,,,,,,,,,,,,,,,,
,,,,,796503,f,y,r,n,13,0,2025-04-03_20h38.46.651,VisualSearchFaces,2024.2.4,MacIntel,58.82352941,,,,,,,,1167.8181,1167.9327,1167.9327,1169.9329,block3,j,1,0.6164,,1,11,51,18,1,1,bottom_left,threatening,neutral,,,,,,,,,,,,,,,,
,,,,,796503,f,y,r,n,13,0,2025-04-03_20h38.46.651,VisualSearchFaces,2024.2.4,MacIntel,58.82352941,,,,,,,,1170.9328,1171.0331,1171.0331,1173.0318,block3,j,1,0.4028,,1,12,52,0,1,1,centre,neutral,friendly,,,,,,,,,,,,,,,,
,,,,,796503,f,y,r,n,13,0,2025-04-03_20h38.46.651,VisualSearchFaces,2024.2.4,MacIntel,58.82352941,,,,,,,,1174.0344,1174.1489,1174.1489,1176.1495,block3,f,1,0.5532,,1,13,53,33,1,0,bottom_left,friendly,no_target,,,,,,,,,,,,,,,,
,,,,,796503,f,y,r,n,13,0,2025-04-03_20h38.46.651,VisualSearchFaces,2024.2.4,MacIntel,58.82352941,,,,,,,,1177.151,1177.2661,1177.2661,1179.2661,block3,j,0,0.4166,,1,14,54,38,1,0,bottom_left,threatening,no_target,,,,,,,,,,,,,,,,
,,,,,796503,f,y,r,n,13,0,2025-04-03_20h38.46.651,VisualSearchFaces,2024.2.4,MacIntel,58.82352941,,,,,,,,1180.2663,1180.3656,1180.3656,1182.3655,block3,f,1,0.566,,1,15,55,20,1,0,centre,neutral,no_target,,,,,,,,,,,,,,,,
,,,,,796503,f,y,r,n,13,0,2025-04-03_20h38.46.651,VisualSearchFaces,2024.2.4,MacIntel,58.82352941,,,,,,,,1183.3671,1183.4662,1183.4662,1185.4656,block3,f,1,0.4337,,1,16,56,30,1,0,centre,friendly,no_target,,,,,,,,,,,,,,,,
,,,,,796503,f,y,r,n,13,0,2025-04-03_20h38.46.651,VisualSearchFaces,2024.2.4,MacIntel,58.82352941,,,,,,,,1186.4662,1186.5661,1186.5661,1188.5659,block3,j,1,0.5516,,1,17,57,19,1,1,bottom_right,threatening,neutral,,,,,,,,,,,,,,,,
,,,,,796503,f,y,r,n,13,0,2025-04-03_20h38.46.651,VisualSearchFaces,2024.2.4,MacIntel,58.82352941,,,,,,,,1189.5669,1189.6824,1189.6824,1191.6829,block3,f,1,0.4161,,1,18,58,25,1,0,centre,neutral,no_target,,,,,,,,,,,,,,,,
,,,,,796503,f,y,r,n,13,0,2025-04-03_20h38.46.651,VisualSearchFaces,2024.2.4,MacIntel,58.82352941,,,,,,,,1192.6833,1192.7832,1192.7832,1194.783,block3,f,1,0.4676,,1,19,59,31,1,0,top_left,friendly,no_target,,,,,,,,,,,,,,,,
,,,,,796503,f,y,r,n,13,0,2025-04-03_20h38.46.651,VisualSearchFaces,2024.2.4,MacIntel,58.82352941,,,,,,,,1195.7845,1195.8997,1195.8997,1197.899,block3,f,1,0.5023,,1,20,60,23,1,0,bottom_left,neutral,no_target,,,,,,,,,,,,,,,,
,,,,,796503,f,y,r,n,13,0,2025-04-03_20h38.46.651,VisualSearchFaces,2024.2.4,MacIntel,58.82352941,,,,,,,,1198.8997,1198.9996,1198.9996,1200.9991,block3,j,1,0.4518,,1,21,61,10,1,1,centre,friendly,neutral,,,,,,,,,,,,,,,,
,,,,,796503,f,y,r,n,13,0,2025-04-03_20h38.46.651,VisualSearchFaces,2024.2.4,MacIntel,58.82352941,,,,,,,,1202.0006,1202.0996,1202.0996,1204.0988,block3,f,0,0.471,,1,22,62,16,1,1,top_left,threatening,neutral,,,,,,,,,,,,,,,,
,,,,,796503,f,y,r,n,13,0,2025-04-03_20h38.46.651,VisualSearchFaces,2024.2.4,MacIntel,58.82352941,,,,,,,,1205.1001,1205.1996,1205.1996,1207.1995,block3,f,1,0.9523,,1,23,63,24,1,0,bottom_right,neutral,no_target,,,,,,,,,,,,,,,,
,,,,,796503,f,y,r,n,13,0,2025-04-03_20h38.46.651,VisualSearchFaces,2024.2.4,MacIntel,58.82352941,,,,,,,,1208.2006,1208.3161,1208.3161,1210.3155,block3,j,1,0.3833,,1,24,64,5,1,1,centre,neutral,threatening,,,,,,,,,,,,,,,,
,,,,,796503,f,y,r,n,13,0,2025-04-03_20h38.46.651,VisualSearchFaces,2024.2.4,MacIntel,58.82352941,,,,,,,,1211.3179,1211.4326,1211.4326,1213.433,block3,j,1,0.6184,,1,25,65,17,1,1,top_right,threatening,neutral,,,,,,,,,,,,,,,,
,,,,,796503,f,y,r,n,13,0,2025-04-03_20h38.46.651,VisualSearchFaces,2024.2.4,MacIntel,58.82352941,,,,,,,,1214.4345,1214.5333,1214.5333,1216.5324,block3,j,1,0.5658,,1,26,66,13,1,1,bottom_left,friendly,neutral,,,,,,,,,,,,,,,,
,,,,,796503,f,y,r,n,13,0,2025-04-03_20h38.46.651,VisualSearchFaces,2024.2.4,MacIntel,58.82352941,,,,,,,,1217.5349,1217.6497,1217.6498,1219.6498,block3,f,1,0.6331,,1,27,67,26,1,0,top_left,neutral,no_target,,,,,,,,,,,,,,,,
,,,,,796503,f,y,r,n,13,0,2025-04-03_20h38.46.651,VisualSearchFaces,2024.2.4,MacIntel,58.82352941,,,,,,,,1220.6514,1220.7662,1220.7662,1222.7658,block3,f,1,0.5523,,1,28,68,29,1,0,bottom_right,neutral,no_target,,,,,,,,,,,,,,,,
,,,,,796503,f,y,r,n,13,0,2025-04-03_20h38.46.651,VisualSearchFaces,2024.2.4,MacIntel,58.82352941,,,,,,,,1223.7667,1223.8658,1223.8658,1225.8669,block3,j,0,0.568,,1,29,69,34,1,0,bottom_right,friendly,no_target,,,,,,,,,,,,,,,,
,,,,,796503,f,y,r,n,13,0,2025-04-03_20h38.46.651,VisualSearchFaces,2024.2.4,MacIntel,58.82352941,,,,,,,,1226.867,1226.966,1226.966,1228.966,block3,j,1,0.568,,1,30,70,14,1,1,bottom_right,friendly,neutral,,,,,,,,,,,,,,,,
,,,,,796503,f,y,r,n,13,0,2025-04-03_20h38.46.651,VisualSearchFaces,2024.2.4,MacIntel,58.82352941,,,,,,,,1229.967,1230.0661,1230.0661,1232.0656,block3,f,1,0.4487,,1,31,71,27,1,0,top_right,neutral,no_target,,,,,,,,,,,,,,,,
,,,,,796503,f,y,r,n,13,0,2025-04-03_20h38.46.651,VisualSearchFaces,2024.2.4,MacIntel,58.82352941,,,,,,,,1233.0674,1233.1822,1233.1822,1235.1829,block3,f,1,0.5364,,1,32,72,39,1,0,bottom_right,threatening,no_target,,,,,,,,,,,,,,,,
,,,,,796503,f,y,r,n,13,0,2025-04-03_20h38.46.651,VisualSearchFaces,2024.2.4,MacIntel,58.82352941,,,,,,,,1236.1844,1236.2991,1236.2991,1238.2999,block3,j,1,0.4833,,1,33,73,9,1,1,bottom_right,neutral,threatening,,,,,,,,,,,,,,,,
,,,,,796503,f,y,r,n,13,0,2025-04-03_20h38.46.651,VisualSearchFaces,2024.2.4,MacIntel,58.82352941,,,,,,,,1239.3006,1239.4164,1239.4164,1241.4158,block3,f,1,0.5506,,1,34,74,28,1,0,bottom_left,neutral,no_target,,,,,,,,,,,,,,,,
,,,,,796503,f,y,r,n,13,0,2025-04-03_20h38.46.651,VisualSearchFaces,2024.2.4,MacIntel,58.82352941,,,,,,,,1242.4167,1242.5332,1242.5332,1244.5335,block3,j,1,0.4386,,1,35,75,7,1,1,top_right,neutral,threatening,,,,,,,,,,,,,,,,
,,,,,796503,f,y,r,n,13,0,2025-04-03_20h38.46.651,VisualSearchFaces,2024.2.4,MacIntel,58.82352941,,,,,,,,1245.5348,1245.6488,1245.6488,1247.6499,block3,j,1,0.4367,,1,36,76,3,1,1,bottom_left,neutral,friendly,,,,,,,,,,,,,,,,
,,,,,796503,f,y,r,n,13,0,2025-04-03_20h38.46.651,VisualSearchFaces,2024.2.4,MacIntel,58.82352941,,,,,,,,1248.6512,1248.7499,1248.7499,1250.7493,block3,j,1,0.3156,,1,37,77,4,1,1,bottom_right,neutral,friendly,,,,,,,,,,,,,,,,
,,,,,796503,f,y,r,n,13,0,2025-04-03_20h38.46.651,VisualSearchFaces,2024.2.4,MacIntel,58.82352941,,,,,,,,1251.751,1251.8667,1251.8667,1253.8661,block3,j,1,0.4172,,1,38,78,6,1,1,top_left,neutral,threatening,,,,,,,,,,,,,,,,
,,,,,796503,f,y,r,n,13,0,2025-04-03_20h38.46.651,VisualSearchFaces,2024.2.4,MacIntel,58.82352941,,,,,,,,1254.8676,1254.9828,1254.9828,1256.9823,block3,j,1,0.3158,,1,39,79,8,1,1,bottom_left,neutral,threatening,,,,,,,,,,,,,,,,
,,,,,796503,f,y,r,n,13,0,2025-04-03_20h38.46.651,VisualSearchFaces,2024.2.4,MacIntel,58.82352941,,,1300.5469,1303.4659,space,2.8963,,1304.4677,1304.5826,1304.5827,1306.583,block4,j,1,0.6339,,0,0,0,3,1,1,bottom_left,neutral,friendly,1256.9835,1300.5331,space,43.5326,,,,,,,,,,,,
,,,,,796503,f,y,r,n,13,0,2025-04-03_20h38.46.651,VisualSearchFaces,2024.2.4,MacIntel,58.82352941,,,,,,,,1307.5837,1307.6832,1307.6833,1309.6826,block4,f,1,0.5652,,0,1,1,24,1,0,bottom_right,neutral,no_target,,,,,,,,,,,,,,,,
,,,,,796503,f,y,r,n,13,0,2025-04-03_20h38.46.651,VisualSearchFaces,2024.2.4,MacIntel,58.82352941,,,,,,,,1310.6843,1310.7997,1310.7997,1312.7996,block4,f,1,0.5019,,0,2,2,38,1,0,bottom_left,threatening,no_target,,,,,,,,,,,,,,,,
,,,,,796503,f,y,r,n,13,0,2025-04-03_20h38.46.651,VisualSearchFaces,2024.2.4,MacIntel,58.82352941,,,,,,,,1313.8013,1313.9159,1313.9159,1315.916,block4,j,1,0.4874,,0,3,3,2,1,1,top_right,neutral,friendly,,,,,,,,,,,,,,,,
,,,,,796503,f,y,r,n,13,0,2025-04-03_20h38.46.651,VisualSearchFaces,2024.2.4,MacIntel,58.82352941,,,,,,,,1316.9173,1317.0164,1317.0164,1319.0163,block4,f,0,0.7671,,0,4,4,14,1,1,bottom_right,friendly,neutral,,,,,,,,,,,,,,,,
,,,,,796503,f,y,r,n,13,0,2025-04-03_20h38.46.651,VisualSearchFaces,2024.2.4,MacIntel,58.82352941,,,,,,,,1320.0174,1320.1331,1320.1331,1322.133,block4,f,1,0.5985,,0,5,5,33,1,0,bottom_left,friendly,no_target,,,,,,,,,,,,,,,,
,,,,,796503,f,y,r,n,13,0,2025-04-03_20h38.46.651,VisualSearchFaces,2024.2.4,MacIntel,58.82352941,,,,,,,,1323.1354,1323.2497,1323.2498,1325.25,block4,f,1,0.4658,,0,6,6,31,1,0,top_left,friendly,no_target,,,,,,,,,,,,,,,,
,,,,,796503,f,y,r,n,13,0,2025-04-03_20h38.46.651,VisualSearchFaces,2024.2.4,MacIntel,58.82352941,,,,,,,,1326.2506,1326.3502,1326.3502,1328.3499,block4,f,1,0.5504,,0,7,7,20,1,0,centre,neutral,no_target,,,,,,,,,,,,,,,,
,,,,,796503,f,y,r,n,13,0,2025-04-03_20h38.46.651,VisualSearchFaces,2024.2.4,MacIntel,58.82352941,,,,,,,,1329.3511,1329.4666,1329.4666,1331.4666,block4,j,1,0.4841,,0,8,8,12,1,1,top_right,friendly,neutral,,,,,,,,,,,,,,,,
,,,,,796503,f,y,r,n,13,0,2025-04-03_20h38.46.651,VisualSearchFaces,2024.2.4,MacIntel,58.82352941,,,,,,,,1332.4679,1332.5833,1332.5834,1334.5835,block4,f,1,0.5861,,0,9,9,30,1,0,centre,friendly,no_target,,,,,,,,,,,,,,,,
,,,,,796503,f,y,r,n,13,0,2025-04-03_20h38.46.651,VisualSearchFaces,2024.2.4,MacIntel,58.82352941,,,,,,,,1335.5845,1335.6839,1335.6839,1337.6837,block4,f,1,0.5845,,0,10,10,28,1,0,bottom_left,neutral,no_target,,,,,,,,,,,,,,,,
,,,,,796503,f,y,r,n,13,0,2025-04-03_20h38.46.651,VisualSearchFaces,2024.2.4,MacIntel,58.82352941,,,,,,,,1338.6852,1338.8006,1338.8006,1340.8004,block4,f,1,0.4974,,0,11,11,34,1,0,bottom_right,friendly,no_target,,,,,,,,,,,,,,,,
,,,,,796503,f,y,r,n,13,0,2025-04-03_20h38.46.651,VisualSearchFaces,2024.2.4,MacIntel,58.82352941,,,,,,,,1341.8016,1341.916,1341.916,1343.9171,block4,j,1,0.485,,0,12,12,10,1,1,centre,friendly,neutral,,,,,,,,,,,,,,,,
,,,,,796503,f,y,r,n,13,0,2025-04-03_20h38.46.651,VisualSearchFaces,2024.2.4,MacIntel,58.82352941,,,,,,,,1344.9192,1345.0336,1345.0336,1347.0336,block4,f,1,0.5687,,0,13,13,37,1,0,top_right,threatening,no_target,,,,,,,,,,,,,,,,
,,,,,796503,f,y,r,n,13,0,2025-04-03_20h38.46.651,VisualSearchFaces,2024.2.4,MacIntel,58.82352941,,,,,,,,1348.0347,1348.1339,1348.1339,1350.1337,block4,f,1,0.4847,,0,14,14,22,1,0,top_right,neutral,no_target,,,,,,,,,,,,,,,,
,,,,,796503,f,y,r,n,13,0,2025-04-03_20h38.46.651,VisualSearchFaces,2024.2.4,MacIntel,58.82352941,,,,,,,,1351.1349,1351.2504,1351.2504,1353.2497,block4,j,1,0.4536,,0,15,15,0,1,1,centre,neutral,friendly,,,,,,,,,,,,,,,,
,,,,,796503,f,y,r,n,13,0,2025-04-03_20h38.46.651,VisualSearchFaces,2024.2.4,MacIntel,58.82352941,,,,,,,,1354.2518,1354.3669,1354.367,1356.3664,block4,j,1,0.4218,,0,16,16,6,1,1,top_left,neutral,threatening,,,,,,,,,,,,,,,,
,,,,,796503,f,y,r,n,13,0,2025-04-03_20h38.46.651,VisualSearchFaces,2024.2.4,MacIntel,58.82352941,,,,,,,,1357.368,1357.4838,1357.4839,1359.4832,block4,j,1,0.4306,,0,17,17,5,1,1,centre,neutral,threatening,,,,,,,,,,,,,,,,
,,,,,796503,f,y,r,n,13,0,2025-04-03_20h38.46.651,VisualSearchFaces,2024.2.4,MacIntel,58.82352941,,,,,,,,1360.4845,1360.6002,1360.6002,1362.6001,block4,j,1,0.321,,0,18,18,7,1,1,top_right,neutral,threatening,,,,,,,,,,,,,,,,
,,,,,796503,f,y,r,n,13,0,2025-04-03_20h38.46.651,VisualSearchFaces,2024.2.4,MacIntel,58.82352941,,,,,,,,1363.6012,1363.7004,1363.7004,1365.7003,block4,j,1,0.4525,,0,19,19,19,1,1,bottom_right,threatening,neutral,,,,,,,,,,,,,,,,
,,,,,796503,f,y,r,n,13,0,2025-04-03_20h38.46.651,VisualSearchFaces,2024.2.4,MacIntel,58.82352941,,,,,,,,1366.7014,1366.8169,1366.8169,1368.8171,block4,f,1,0.58,,0,20,20,29,1,0,bottom_right,neutral,no_target,,,,,,,,,,,,,,,,
,,,,,796503,f,y,r,n,13,0,2025-04-03_20h38.46.651,VisualSearchFaces,2024.2.4,MacIntel,58.82352941,,,,,,,,1369.8182,1369.9337,1369.9337,1371.9336,block4,f,1,0.5389,,0,21,21,25,1,0,centre,neutral,no_target,,,,,,,,,,,,,,,,
,,,,,796503,f,y,r,n,13,0,2025-04-03_20h38.46.651,VisualSearchFaces,2024.2.4,MacIntel,58.82352941,,,,,,,,1372.935,1373.0505,1373.0505,1375.0504,block4,j,1,0.498,,0,22,22,15,1,1,centre,threatening,neutral,,,,,,,,,,,,,,,,
,,,,,796503,f,y,r,n,13,0,2025-04-03_20h38.46.651,VisualSearchFaces,2024.2.4,MacIntel,58.82352941,,,,,,,,1376.0515,1376.1502,1376.1503,1378.1501,block4,j,1,0.6509,,0,23,23,16,1,1,top_left,threatening,neutral,,,,,,,,,,,,,,,,
,,,,,796503,f,y,r,n,13,0,2025-04-03_20h38.46.651,VisualSearchFaces,2024.2.4,MacIntel,58.82352941,,,,,,,,1379.1516,1379.2665,1379.2665,1381.2668,block4,j,1,0.7178,,0,24,24,18,1,1,bottom_left,threatening,neutral,,,,,,,,,,,,,,,,
,,,,,796503,f,y,r,n,13,0,2025-04-03_20h38.46.651,VisualSearchFaces,2024.2.4,MacIntel,58.82352941,,,,,,,,1382.2685,1382.367,1382.367,1384.3673,block4,f,1,0.5833,,0,25,25,26,1,0,top_left,neutral,no_target,,,,,,,,,,,,,,,,
,,,,,796503,f,y,r,n,13,0,2025-04-03_20h38.46.651,VisualSearchFaces,2024.2.4,MacIntel,58.82352941,,,,,,,,1385.3679,1385.467,1385.4671,1387.4667,block4,j,1,0.5161,,0,26,26,17,1,1,top_right,threatening,neutral,,,,,,,,,,,,,,,,
,,,,,796503,f,y,r,n,13,0,2025-04-03_20h38.46.651,VisualSearchFaces,2024.2.4,MacIntel,58.82352941,,,,,,,,1388.4685,1388.5836,1388.5836,1390.5839,block4,f,1,0.4698,,0,27,27,21,1,0,top_left,neutral,no_target,,,,,,,,,,,,,,,,
,,,,,796503,f,y,r,n,13,0,2025-04-03_20h38.46.651,VisualSearchFaces,2024.2.4,MacIntel,58.82352941,,,,,,,,1391.5847,1391.7002,1391.7002,1393.6997,block4,f,1,0.8213,,0,28,28,32,1,0,top_right,friendly,no_target,,,,,,,,,,,,,,,,
,,,,,796503,f,y,r,n,13,0,2025-04-03_20h38.46.651,VisualSearchFaces,2024.2.4,MacIntel,58.82352941,,,,,,,,1394.702,1394.8169,1394.8169,1396.8167,block4,f,1,0.6542,,0,29,29,35,1,0,centre,threatening,no_target,,,,,,,,,,,,,,,,
,,,,,796503,f,y,r,n,13,0,2025-04-03_20h38.46.651,VisualSearchFaces,2024.2.4,MacIntel,58.82352941,,,,,,,,1397.8178,1397.9336,1397.9336,1399.9337,block4,j,1,0.4496,,0,30,30,13,1,1,bottom_left,friendly,neutral,,,,,,,,,,,,,,,,
,,,,,796503,f,y,r,n,13,0,2025-04-03_20h38.46.651,VisualSearchFaces,2024.2.4,MacIntel,58.82352941,,,,,,,,1400.9354,1401.0505,1401.0505,1403.0503,block4,f,1,0.6215,,0,31,31,39,1,0,bottom_right,threatening,no_target,,,,,,,,,,,,,,,,
,,,,,796503,f,y,r,n,13,0,2025-04-03_20h38.46.651,VisualSearchFaces,2024.2.4,MacIntel,58.82352941,,,,,,,,1404.0513,1404.1504,1404.1504,1406.1502,block4,j,1,0.4547,,0,32,32,4,1,1,bottom_right,neutral,friendly,,,,,,,,,,,,,,,,
,,,,,796503,f,y,r,n,13,0,2025-04-03_20h38.46.651,VisualSearchFaces,2024.2.4,MacIntel,58.82352941,,,,,,,,1407.1515,1407.2665,1407.2665,1409.2669,block4,f,1,0.5031,,0,33,33,36,1,0,top_left,threatening,no_target,,,,,,,,,,,,,,,,
,,,,,796503,f,y,r,n,13,0,2025-04-03_20h38.46.651,VisualSearchFaces,2024.2.4,MacIntel,58.82352941,,,,,,,,1410.268,1410.3835,1410.3835,1412.3836,block4,j,1,0.5058,,0,34,34,11,1,1,top_left,friendly,neutral,,,,,,,,,,,,,,,,
,,,,,796503,f,y,r,n,13,0,2025-04-03_20h38.46.651,VisualSearchFaces,2024.2.4,MacIntel,58.82352941,,,,,,,,1413.3849,1413.4841,1413.4842,1415.4835,block4,f,1,0.7994,,0,35,35,27,1,0,top_right,neutral,no_target,,,,,,,,,,,,,,,,
,,,,,796503,f,y,r,n,13,0,2025-04-03_20h38.46.651,VisualSearchFaces,2024.2.4,MacIntel,58.82352941,,,,,,,,1416.4844,1416.5839,1416.5839,1418.5835,block4,j,1,0.3998,,0,36,36,8,1,1,bottom_left,neutral,threatening,,,,,,,,,,,,,,,,
,,,,,796503,f,y,r,n,13,0,2025-04-03_20h38.46.651,VisualSearchFaces,2024.2.4,MacIntel,58.82352941,,,,,,,,1419.5847,1419.7001,1419.7001,1421.7001,block4,f,1,0.4503,,0,37,37,23,1,0,bottom_left,neutral,no_target,,,,,,,,,,,,,,,,
,,,,,796503,f,y,r,n,13,0,2025-04-03_20h38.46.651,VisualSearchFaces,2024.2.4,MacIntel,58.82352941,,,,,,,,1422.7016,1422.8005,1422.8006,1424.8,block4,j,1,0.4158,,0,38,38,1,1,1,top_left,neutral,friendly,,,,,,,,,,,,,,,,
,,,,,796503,f,y,r,n,13,0,2025-04-03_20h38.46.651,VisualSearchFaces,2024.2.4,MacIntel,58.82352941,,,,,,,,1425.801,1425.9007,1425.9007,1427.9002,block4,j,1,0.366,,0,39,39,9,1,1,bottom_right,neutral,threatening,,,,,,,,,,,,,,,,
,,,,,796503,f,y,r,n,13,0,2025-04-03_20h38.46.651,VisualSearchFaces,2024.2.4,MacIntel,58.82352941,,,,,,,,1428.9011,1429.0005,1429.0005,1431,block4,j,1,0.452,,1,0,40,1,1,1,top_left,neutral,friendly,,,,,,,,,,,,,,,,
,,,,,796503,f,y,r,n,13,0,2025-04-03_20h38.46.651,VisualSearchFaces,2024.2.4,MacIntel,58.82352941,,,,,,,,1432.0019,1432.1177,1432.1177,1434.1169,block4,j,1,0.4841,,1,1,41,14,1,1,bottom_right,friendly,neutral,,,,,,,,,,,,,,,,
,,,,,796503,f,y,r,n,13,0,2025-04-03_20h38.46.651,VisualSearchFaces,2024.2.4,MacIntel,58.82352941,,,,,,,,1435.1183,1435.2175,1435.2175,1437.2168,block4,f,1,0.5845,,1,2,42,33,1,0,bottom_left,friendly,no_target,,,,,,,,,,,,,,,,
,,,,,796503,f,y,r,n,13,0,2025-04-03_20h38.46.651,VisualSearchFaces,2024.2.4,MacIntel,58.82352941,,,,,,,,1438.2184,1438.3173,1438.3173,1440.317,block4,j,1,0.3318,,1,3,43,9,1,1,bottom_right,neutral,threatening,,,,,,,,,,,,,,,,
,,,,,796503,f,y,r,n,13,0,2025-04-03_20h38.46.651,VisualSearchFaces,2024.2.4,MacIntel,58.82352941,,,,,,,,1441.3189,1441.4174,1441.4174,1443.417,block4,f,1,0.4326,,1,4,44,29,1,0,bottom_right,neutral,no_target,,,,,,,,,,,,,,,,
,,,,,796503,f,y,r,n,13,0,2025-04-03_20h38.46.651,VisualSearchFaces,2024.2.4,MacIntel,58.82352941,,,,,,,,1444.4184,1444.5173,1444.5174,1446.5169,block4,j,1,0.3475,,1,5,45,5,1,1,centre,neutral,threatening,,,,,,,,,,,,,,,,
,,,,,796503,f,y,r,n,13,0,2025-04-03_20h38.46.651,VisualSearchFaces,2024.2.4,MacIntel,58.82352941,,,,,,,,1447.518,1447.6237,1447.6237,1449.6177,block4,j,0,0.4461,,1,6,46,24,1,0,bottom_right,neutral,no_target,,,,,,,,,,,,,,,,
,,,,,796503,f,y,r,n,13,0,2025-04-03_20h38.46.651,VisualSearchFaces,2024.2.4,MacIntel,58.82352941,,,,,,,,1450.6179,1450.7176,1450.7176,1452.7168,block4,f,1,0.5136,,1,7,47,28,1,0,bottom_left,neutral,no_target,,,,,,,,,,,,,,,,
,,,,,796503,f,y,r,n,13,0,2025-04-03_20h38.46.651,VisualSearchFaces,2024.2.4,MacIntel,58.82352941,,,,,,,,1453.7194,1453.8339,1453.8339,1455.8333,block4,j,0,0.4324,,1,8,48,20,1,0,centre,neutral,no_target,,,,,,,,,,,,,,,,
,,,,,796503,f,y,r,n,13,0,2025-04-03_20h38.46.651,VisualSearchFaces,2024.2.4,MacIntel,58.82352941,,,,,,,,1456.8345,1456.9514,1456.9514,1458.9508,block4,f,1,0.5807,,1,9,49,38,1,0,bottom_left,threatening,no_target,,,,,,,,,,,,,,,,
,,,,,796503,f,y,r,n,13,0,2025-04-03_20h38.46.651,VisualSearchFaces,2024.2.4,MacIntel,58.82352941,,,,,,,,1459.9522,1460.0669,1460.0669,1462.0679,block4,f,1,0.5346,,1,10,50,34,1,0,bottom_right,friendly,no_target,,,,,,,,,,,,,,,,
,,,,,796503,f,y,r,n,13,0,2025-04-03_20h38.46.651,VisualSearchFaces,2024.2.4,MacIntel,58.82352941,,,,,,,,1463.0695,1463.1834,1463.1834,1465.1837,block4,f,1,0.3507,,1,11,51,25,1,0,centre,neutral,no_target,,,,,,,,,,,,,,,,
,,,,,796503,f,y,r,n,13,0,2025-04-03_20h38.46.651,VisualSearchFaces,2024.2.4,MacIntel,58.82352941,,,,,,,,1466.1847,1466.2838,1466.2838,1468.2837,block4,f,0,0.3708,,1,12,52,18,1,1,bottom_left,threatening,neutral,,,,,,,,,,,,,,,,
,,,,,796503,f,y,r,n,13,0,2025-04-03_20h38.46.651,VisualSearchFaces,2024.2.4,MacIntel,58.82352941,,,,,,,,1469.2845,1469.3844,1469.3844,1471.3836,block4,j,1,0.486,,1,13,53,6,1,1,top_left,neutral,threatening,,,,,,,,,,,,,,,,
,,,,,796503,f,y,r,n,13,0,2025-04-03_20h38.46.651,VisualSearchFaces,2024.2.4,MacIntel,58.82352941,,,,,,,,1472.3854,1472.5007,1472.5007,1474.5007,block4,f,1,0.5035,,1,14,54,26,1,0,top_left,neutral,no_target,,,,,,,,,,,,,,,,
,,,,,796503,f,y,r,n,13,0,2025-04-03_20h38.46.651,VisualSearchFaces,2024.2.4,MacIntel,58.82352941,,,,,,,,1475.5019,1475.601,1475.601,1477.6011,block4,f,1,0.4334,,1,15,55,21,1,0,top_left,neutral,no_target,,,,,,,,,,,,,,,,
,,,,,796503,f,y,r,n,13,0,2025-04-03_20h38.46.651,VisualSearchFaces,2024.2.4,MacIntel,58.82352941,,,,,,,,1478.6023,1478.7177,1478.7177,1480.7169,block4,f,0,0.3522,,1,16,56,11,1,1,top_left,friendly,neutral,,,,,,,,,,,,,,,,
,,,,,796503,f,y,r,n,13,0,2025-04-03_20h38.46.651,VisualSearchFaces,2024.2.4,MacIntel,58.82352941,,,,,,,,1481.7191,1481.8338,1481.8338,1483.8343,block4,f,1,0.7002,,1,17,57,31,1,0,top_left,friendly,no_target,,,,,,,,,,,,,,,,
,,,,,796503,f,y,r,n,13,0,2025-04-03_20h38.46.651,VisualSearchFaces,2024.2.4,MacIntel,58.82352941,,,,,,,,1484.8348,1484.9346,1484.9346,1486.9336,block4,f,1,0.5817,,1,18,58,37,1,0,top_right,threatening,no_target,,,,,,,,,,,,,,,,
,,,,,796503,f,y,r,n,13,0,2025-04-03_20h38.46.651,VisualSearchFaces,2024.2.4,MacIntel,58.82352941,,,,,,,,1487.9351,1488.0342,1488.0342,1490.0344,block4,f,1,0.6337,,1,19,59,27,1,0,top_right,neutral,no_target,,,,,,,,,,,,,,,,
,,,,,796503,f,y,r,n,13,0,2025-04-03_20h38.46.651,VisualSearchFaces,2024.2.4,MacIntel,58.82352941,,,,,,,,1491.0354,1491.1348,1491.1348,1493.1342,block4,j,1,0.5856,,1,20,60,16,1,1,top_left,threatening,neutral,,,,,,,,,,,,,,,,
,,,,,796503,f,y,r,n,13,0,2025-04-03_20h38.46.651,VisualSearchFaces,2024.2.4,MacIntel,58.82352941,,,,,,,,1494.1351,1494.234,1494.234,1496.2338,block4,j,1,0.6526,,1,21,61,19,1,1,bottom_right,threatening,neutral,,,,,,,,,,,,,,,,
,,,,,796503,f,y,r,n,13,0,2025-04-03_20h38.46.651,VisualSearchFaces,2024.2.4,MacIntel,58.82352941,,,,,,,,1497.235,1497.3339,1497.3339,1499.3343,block4,f,0,0.6507,,1,22,62,10,1,1,centre,friendly,neutral,,,,,,,,,,,,,,,,
,,,,,796503,f,y,r,n,13,0,2025-04-03_20h38.46.651,VisualSearchFaces,2024.2.4,MacIntel,58.82352941,,,,,,,,1500.3349,1500.4341,1500.4341,1502.4346,block4,j,1,0.5051,,1,23,63,12,1,1,top_right,friendly,neutral,,,,,,,,,,,,,,,,
,,,,,796503,f,y,r,n,13,0,2025-04-03_20h38.46.651,VisualSearchFaces,2024.2.4,MacIntel,58.82352941,,,,,,,,1503.4352,1503.5508,1503.5508,1505.5505,block4,j,1,0.4503,,1,24,64,2,1,1,top_right,neutral,friendly,,,,,,,,,,,,,,,,
,,,,,796503,f,y,r,n,13,0,2025-04-03_20h38.46.651,VisualSearchFaces,2024.2.4,MacIntel,58.82352941,,,,,,,,1506.5524,1506.6514,1506.6514,1508.6508,block4,j,1,0.4672,,1,25,65,0,1,1,centre,neutral,friendly,,,,,,,,,,,,,,,,
,,,,,796503,f,y,r,n,13,0,2025-04-03_20h38.46.651,VisualSearchFaces,2024.2.4,MacIntel,58.82352941,,,,,,,,1509.6522,1509.767,1509.767,1511.7675,block4,f,1,0.5696,,1,26,66,22,1,0,top_right,neutral,no_target,,,,,,,,,,,,,,,,
,,,,,796503,f,y,r,n,13,0,2025-04-03_20h38.46.651,VisualSearchFaces,2024.2.4,MacIntel,58.82352941,,,,,,,,1512.7688,1512.8841,1512.8841,1514.8847,block4,j,1,0.4009,,1,27,67,3,1,1,bottom_left,neutral,friendly,,,,,,,,,,,,,,,,
,,,,,796503,f,y,r,n,13,0,2025-04-03_20h38.46.651,VisualSearchFaces,2024.2.4,MacIntel,58.82352941,,,,,,,,1515.885,1516.0012,1516.0012,1518.0006,block4,f,1,0.6319,,1,28,68,39,1,0,bottom_right,threatening,no_target,,,,,,,,,,,,,,,,
,,,,,796503,f,y,r,n,13,0,2025-04-03_20h38.46.651,VisualSearchFaces,2024.2.4,MacIntel,58.82352941,,,,,,,,1519.0018,1519.1176,1519.1176,1521.1179,block4,f,1,0.6498,,1,29,69,30,1,0,centre,friendly,no_target,,,,,,,,,,,,,,,,
,,,,,796503,f,y,r,n,13,0,2025-04-03_20h38.46.651,VisualSearchFaces,2024.2.4,MacIntel,58.82352941,,,,,,,,1522.1192,1522.2338,1522.2338,1524.2338,block4,f,1,0.5329,,1,30,70,36,1,0,top_left,threatening,no_target,,,,,,,,,,,,,,,,
,,,,,796503,f,y,r,n,13,0,2025-04-03_20h38.46.651,VisualSearchFaces,2024.2.4,MacIntel,58.82352941,,,,,,,,1525.2359,1525.3503,1525.3503,1527.3505,block4,f,1,0.5152,,1,31,71,23,1,0,bottom_left,neutral,no_target,,,,,,,,,,,,,,,,
,,,,,796503,f,y,r,n,13,0,2025-04-03_20h38.46.651,VisualSearchFaces,2024.2.4,MacIntel,58.82352941,,,,,,,,1528.352,1528.4511,1528.4511,1530.4508,block4,j,1,0.3988,,1,32,72,8,1,1,bottom_left,neutral,threatening,,,,,,,,,,,,,,,,
,,,,,796503,f,y,r,n,13,0,2025-04-03_20h38.46.651,VisualSearchFaces,2024.2.4,MacIntel,58.82352941,,,,,,,,1531.4517,1531.5511,1531.5511,1533.5507,block4,f,0,0.6983,,1,33,73,15,1,1,centre,threatening,neutral,,,,,,,,,,,,,,,,
,,,,,796503,f,y,r,n,13,0,2025-04-03_20h38.46.651,VisualSearchFaces,2024.2.4,MacIntel,58.82352941,,,,,,,,1534.5517,1534.6508,1534.6508,1536.6507,block4,j,1,0.4336,,1,34,74,4,1,1,bottom_right,neutral,friendly,,,,,,,,,,,,,,,,
,,,,,796503,f,y,r,n,13,0,2025-04-03_20h38.46.651,VisualSearchFaces,2024.2.4,MacIntel,58.82352941,,,,,,,,1537.6518,1537.7681,1537.7681,1539.7676,block4,f,1,0.5635,,1,35,75,35,1,0,centre,threatening,no_target,,,,,,,,,,,,,,,,
,,,,,796503,f,y,r,n,13,0,2025-04-03_20h38.46.651,VisualSearchFaces,2024.2.4,MacIntel,58.82352941,,,,,,,,1540.7687,1540.8679,1540.8679,1542.8675,block4,f,1,0.8828,,1,36,76,32,1,0,top_right,friendly,no_target,,,,,,,,,,,,,,,,
,,,,,796503,f,y,r,n,13,0,2025-04-03_20h38.46.651,VisualSearchFaces,2024.2.4,MacIntel,58.82352941,,,,,,,,1543.8688,1543.9681,1543.9682,1545.968,block4,j,1,0.4652,,1,37,77,13,1,1,bottom_left,friendly,neutral,,,,,,,,,,,,,,,,
,,,,,796503,f,y,r,n,13,0,2025-04-03_20h38.46.651,VisualSearchFaces,2024.2.4,MacIntel,58.82352941,,,,,,,,1546.9689,1547.068,1547.068,1549.0677,block4,j,1,0.5326,,1,38,78,7,1,1,top_right,neutral,threatening,,,,,,,,,,,,,,,,
,,,,,796503,f,y,r,n,13,0,2025-04-03_20h38.46.651,VisualSearchFaces,2024.2.4,MacIntel,58.82352941,,,,,,,,1550.0686,1550.1673,1550.1674,1552.1683,block4,j,1,0.6006,,1,39,79,17,1,1,top_right,threatening,neutral,,,,,,,,,,,,,,,,
,,,,,796503,f,y,r,n,13,0,2025-04-03_20h38.46.651,VisualSearchFaces,2024.2.4,MacIntel,58.82352941,,,,,,,,,,,,,,,,,,,,,,,,,,1552.1694,1565.2344,space,13.0468,,1565.2443,1581.0238,they looked like ghast from minecraft :),1,[1581.024600000143],[1581.024600000143],,,,,
,,,,,796503,f,y,r,n,13,0,2025-04-03_20h38.46.651,VisualSearchFaces,2024.2.4,MacIntel,58.82352941,,,,,,,,,,,,,,,,,,,,,,,,,,,,,,,,,,,,,1581.024,1587.6686,space,6.6239,
