Welcome.started,Welcome.stopped,keyboard_space_welcome.keys,keyboard_space_welcome.rt,keyboard_space_welcome.duration,participant,gender,(corrected) normal vision,handedness,exp vse,session,skip_intro,date,expName,psychopyVersion,OS,frameRate,stimulus_exposure.started,stimulus_exposure.stopped,Block_intro.started,Block_intro.stopped,keyboard_space.keys,keyboard_space.rt,keyboard_space.duration,Stimulus.started,Stimulus.stopped,fixation_ending.started,fixation_ending.stopped,block_id,keyboard_response.keys,keyboard_response.corr,trials.thisRepN,trials.thisTrialN,trials.thisN,trials.thisIndex,trials.ran,target_presence,target_position,background_emotion,target_emotion,keyboard_response.rt,keyboard_response.duration,Block_outro.started,Block_outro.stopped,keyboard_space_end.keys,keyboard_space_end.rt,keyboard_space_end.duration,Question_about_stimulus.started,Question_about_stimulus.stopped,textbox_response.text,button.numClicks,button.timesOn,button.timesOff,Thanks.started,Thanks.stopped,keyboard_space_goodbye.keys,keyboard_space_goodbye.rt,keyboard_space_goodbye.duration
0.0006,64.9609,space,64.9185,,799384,m,y,r,n,14,0,2025-04-05_15h35.03.235,VisualSearchFaces,2024.2.4,Win32,60.24096386,,,,,,,,,,,,,,,,,,,,,,,,,,,,,,,,,,,,,,,,,
,,,,,799384,m,y,r,n,14,0,2025-04-05_15h35.03.235,VisualSearchFaces,2024.2.4,Win32,60.24096386,86.1103,89.1213,89.1354,137.7325,space,48.5582,,138.7343,138.9989,138.9995,140.9988,practice1,,0,0,0,0,8,1,1,bottom_left,neutral,threatening,,,,,,,,,,,,,,,,,,
,,,,,799384,m,y,r,n,14,0,2025-04-05_15h35.03.235,VisualSearchFaces,2024.2.4,Win32,60.24096386,,,,,,,,142.0029,142.261,142.2611,144.264,practice1,,0,0,1,1,23,1,0,bottom_left,neutral,no_target,,,,,,,,,,,,,,,,,,
,,,,,799384,m,y,r,n,14,0,2025-04-05_15h35.03.235,VisualSearchFaces,2024.2.4,Win32,60.24096386,,,,,,,,145.2669,145.5308,145.5308,147.5307,practice1,j,1,0,2,2,11,1,1,top_left,friendly,neutral,0.5505,,,,,,,,,,,,,,,,,
,,,,,799384,m,y,r,n,14,0,2025-04-05_15h35.03.235,VisualSearchFaces,2024.2.4,Win32,60.24096386,,,,,,,,148.533,148.7973,148.7975,150.7969,practice1,f,1,0,3,3,31,1,0,top_left,friendly,no_target,0.4351,,,,,,,,,,,,,,,,,
,,,,,799384,m,y,r,n,14,0,2025-04-05_15h35.03.235,VisualSearchFaces,2024.2.4,Win32,60.24096386,,,,,,,,151.8021,152.0635,152.0637,154.0632,practice1,f,1,0,4,4,27,1,0,top_right,neutral,no_target,0.584,,,,,,,,,,,,,,,,,
,,,,,799384,m,y,r,n,14,0,2025-04-05_15h35.03.235,VisualSearchFaces,2024.2.4,Win32,60.24096386,,,,,,,,155.066,155.3299,155.3301,157.3295,practice1,f,1,0,5,5,22,1,0,top_right,neutral,no_target,0.5178,,,,,,,,,,,,,,,,,
,,,,,799384,m,y,r,n,14,0,2025-04-05_15h35.03.235,VisualSearchFaces,2024.2.4,Win32,60.24096386,,,,,,,,158.3345,158.596,158.596,160.5956,practice1,f,1,0,6,6,39,1,0,bottom_right,threatening,no_target,0.8804,,,,,,,,,,,,,,,,,
,,,,,799384,m,y,r,n,14,0,2025-04-05_15h35.03.235,VisualSearchFaces,2024.2.4,Win32,60.24096386,,,,,,,,161.6003,161.8622,161.8623,163.862,practice1,j,1,0,7,7,5,1,1,centre,neutral,threatening,0.5671,,,,,,,,,,,,,,,,,
,,,,,799384,m,y,r,n,14,0,2025-04-05_15h35.03.235,VisualSearchFaces,2024.2.4,Win32,60.24096386,,,,,,,,164.866,165.1285,165.1286,167.1284,practice1,f,1,0,8,8,26,1,0,top_left,neutral,no_target,0.6354,,,,,,,,,,,,,,,,,
,,,,,799384,m,y,r,n,14,0,2025-04-05_15h35.03.235,VisualSearchFaces,2024.2.4,Win32,60.24096386,,,,,,,,168.1287,168.3783,168.3783,170.3779,practice1,j,1,0,9,9,12,1,1,top_right,friendly,neutral,0.6445,,,,,,,,,,,,,,,,,
,,,,,799384,m,y,r,n,14,0,2025-04-05_15h35.03.235,VisualSearchFaces,2024.2.4,Win32,60.24096386,,,,,,,,171.3835,171.6444,171.6446,173.6439,practice1,f,1,0,10,10,29,1,0,bottom_right,neutral,no_target,0.5015,,,,,,,,,,,,,,,,,
,,,,,799384,m,y,r,n,14,0,2025-04-05_15h35.03.235,VisualSearchFaces,2024.2.4,Win32,60.24096386,,,,,,,,174.647,174.9106,174.9107,176.9104,practice1,f,1,0,11,11,20,1,0,centre,neutral,no_target,0.5027,,,,,,,,,,,,,,,,,
,,,,,799384,m,y,r,n,14,0,2025-04-05_15h35.03.235,VisualSearchFaces,2024.2.4,Win32,60.24096386,,,,,,,,177.9147,178.1768,178.177,180.1766,practice1,j,1,0,12,12,18,1,1,bottom_left,threatening,neutral,0.5341,,,,,,,,,,,,,,,,,
,,,,,799384,m,y,r,n,14,0,2025-04-05_15h35.03.235,VisualSearchFaces,2024.2.4,Win32,60.24096386,,,,,,,,181.182,181.429,181.4291,183.4263,practice1,j,1,0,13,13,9,1,1,bottom_right,neutral,threatening,0.4506,,,,,,,,,,,,,,,,,
,,,,,799384,m,y,r,n,14,0,2025-04-05_15h35.03.235,VisualSearchFaces,2024.2.4,Win32,60.24096386,,,,,,,,184.4307,184.691,184.6911,186.6897,practice1,j,1,0,14,14,6,1,1,top_left,neutral,threatening,0.417,,,,,,,,,,,,,,,,,
,,,,,799384,m,y,r,n,14,0,2025-04-05_15h35.03.235,VisualSearchFaces,2024.2.4,Win32,60.24096386,,,,,,,,187.6925,187.9424,187.9425,189.942,practice1,j,1,0,15,15,10,1,1,centre,friendly,neutral,1.9506,,,,,,,,,,,,,,,,,
,,,,,799384,m,y,r,n,14,0,2025-04-05_15h35.03.235,VisualSearchFaces,2024.2.4,Win32,60.24096386,,,,,,,,190.9467,191.2088,191.2089,193.2085,practice1,j,1,0,16,16,14,1,1,bottom_right,friendly,neutral,0.5007,,,,,,,,,,,,,,,,,
,,,,,799384,m,y,r,n,14,0,2025-04-05_15h35.03.235,VisualSearchFaces,2024.2.4,Win32,60.24096386,,,,,,,,194.213,194.4749,194.475,196.4747,practice1,f,1,0,17,17,30,1,0,centre,friendly,no_target,0.4493,,,,,,,,,,,,,,,,,
,,,,,799384,m,y,r,n,14,0,2025-04-05_15h35.03.235,VisualSearchFaces,2024.2.4,Win32,60.24096386,,,,,,,,197.4813,197.7249,197.725,199.7243,practice1,j,1,0,18,18,1,1,1,top_left,neutral,friendly,0.4835,,,,,,,,,,,,,,,,,
,,,,,799384,m,y,r,n,14,0,2025-04-05_15h35.03.235,VisualSearchFaces,2024.2.4,Win32,60.24096386,,,,,,,,200.7291,200.9909,200.991,202.9904,practice1,f,1,0,19,19,24,1,0,bottom_right,neutral,no_target,0.4001,,,,,,,,,,,,,,,,,
,,,,,799384,m,y,r,n,14,0,2025-04-05_15h35.03.235,VisualSearchFaces,2024.2.4,Win32,60.24096386,,,,,,,,203.9952,204.2569,204.257,206.2567,practice1,f,1,0,20,20,35,1,0,centre,threatening,no_target,0.5506,,,,,,,,,,,,,,,,,
,,,,,799384,m,y,r,n,14,0,2025-04-05_15h35.03.235,VisualSearchFaces,2024.2.4,Win32,60.24096386,,,,,,,,207.2619,207.5234,207.5234,209.5229,practice1,j,1,0,21,21,19,1,1,bottom_right,threatening,neutral,0.5,,,,,,,,,,,,,,,,,
,,,,,799384,m,y,r,n,14,0,2025-04-05_15h35.03.235,VisualSearchFaces,2024.2.4,Win32,60.24096386,,,,,,,,210.5281,210.7896,210.7898,212.7894,practice1,f,1,0,22,22,25,1,0,centre,neutral,no_target,0.5336,,,,,,,,,,,,,,,,,
,,,,,799384,m,y,r,n,14,0,2025-04-05_15h35.03.235,VisualSearchFaces,2024.2.4,Win32,60.24096386,,,,,,,,213.7943,214.0541,214.0541,216.053,practice1,f,1,0,23,23,34,1,0,bottom_right,friendly,no_target,0.6841,,,,,,,,,,,,,,,,,
,,,,,799384,m,y,r,n,14,0,2025-04-05_15h35.03.235,VisualSearchFaces,2024.2.4,Win32,60.24096386,,,,,,,,217.0581,217.3059,217.306,219.3052,practice1,j,1,0,24,24,3,1,1,bottom_left,neutral,friendly,0.4667,,,,,,,,,,,,,,,,,
,,,,,799384,m,y,r,n,14,0,2025-04-05_15h35.03.235,VisualSearchFaces,2024.2.4,Win32,60.24096386,,,,,,,,220.3106,220.558,220.5581,222.5547,practice1,j,1,0,25,25,7,1,1,top_right,neutral,threatening,0.4309,,,,,,,,,,,,,,,,,
,,,,,799384,m,y,r,n,14,0,2025-04-05_15h35.03.235,VisualSearchFaces,2024.2.4,Win32,60.24096386,,,,,,,,223.5595,223.8052,223.8053,225.8042,practice1,f,1,0,26,26,38,1,0,bottom_left,threatening,no_target,0.5834,,,,,,,,,,,,,,,,,
,,,,,799384,m,y,r,n,14,0,2025-04-05_15h35.03.235,VisualSearchFaces,2024.2.4,Win32,60.24096386,,,,,,,,226.8083,227.0709,227.071,229.0706,practice1,f,1,0,27,27,37,1,0,top_right,threatening,no_target,0.7004,,,,,,,,,,,,,,,,,
,,,,,799384,m,y,r,n,14,0,2025-04-05_15h35.03.235,VisualSearchFaces,2024.2.4,Win32,60.24096386,,,,,,,,230.075,230.3211,230.3212,232.3202,practice1,j,0,0,28,28,32,1,0,top_right,friendly,no_target,0.6663,,,,,,,,,,,,,,,,,
,,,,,799384,m,y,r,n,14,0,2025-04-05_15h35.03.235,VisualSearchFaces,2024.2.4,Win32,60.24096386,,,,,,,,233.3246,233.5797,233.5798,235.5695,practice1,j,1,0,29,29,13,1,1,bottom_left,friendly,neutral,0.5075,,,,,,,,,,,,,,,,,
,,,,,799384,m,y,r,n,14,0,2025-04-05_15h35.03.235,VisualSearchFaces,2024.2.4,Win32,60.24096386,,,,,,,,236.5747,236.8363,236.8364,238.8359,practice1,j,1,0,30,30,0,1,1,centre,neutral,friendly,0.6348,,,,,,,,,,,,,,,,,
,,,,,799384,m,y,r,n,14,0,2025-04-05_15h35.03.235,VisualSearchFaces,2024.2.4,Win32,60.24096386,,,,,,,,239.8407,240.1026,240.1026,242.1023,practice1,f,1,0,31,31,33,1,0,bottom_left,friendly,no_target,0.6009,,,,,,,,,,,,,,,,,
,,,,,799384,m,y,r,n,14,0,2025-04-05_15h35.03.235,VisualSearchFaces,2024.2.4,Win32,60.24096386,,,,,,,,243.107,243.3655,243.3657,245.3658,practice1,j,1,0,32,32,17,1,1,top_right,threatening,neutral,0.5508,,,,,,,,,,,,,,,,,
,,,,,799384,m,y,r,n,14,0,2025-04-05_15h35.03.235,VisualSearchFaces,2024.2.4,Win32,60.24096386,,,,,,,,246.3719,246.6228,246.623,248.6183,practice1,j,1,0,33,33,2,1,1,top_right,neutral,friendly,0.4291,,,,,,,,,,,,,,,,,
,,,,,799384,m,y,r,n,14,0,2025-04-05_15h35.03.235,VisualSearchFaces,2024.2.4,Win32,60.24096386,,,,,,,,249.6231,249.8846,249.8846,251.8845,practice1,j,1,0,34,34,15,1,1,centre,threatening,neutral,0.4681,,,,,,,,,,,,,,,,,
,,,,,799384,m,y,r,n,14,0,2025-04-05_15h35.03.235,VisualSearchFaces,2024.2.4,Win32,60.24096386,,,,,,,,252.89,253.1513,253.1514,255.1503,practice1,j,1,0,35,35,16,1,1,top_left,threatening,neutral,0.4875,,,,,,,,,,,,,,,,,
,,,,,799384,m,y,r,n,14,0,2025-04-05_15h35.03.235,VisualSearchFaces,2024.2.4,Win32,60.24096386,,,,,,,,256.1535,256.4173,256.4173,258.4132,practice1,j,1,0,36,36,4,1,1,bottom_right,neutral,friendly,0.4005,,,,,,,,,,,,,,,,,
,,,,,799384,m,y,r,n,14,0,2025-04-05_15h35.03.235,VisualSearchFaces,2024.2.4,Win32,60.24096386,,,,,,,,259.4177,259.667,259.667,261.6666,practice1,f,1,0,37,37,28,1,0,bottom_left,neutral,no_target,0.5169,,,,,,,,,,,,,,,,,
,,,,,799384,m,y,r,n,14,0,2025-04-05_15h35.03.235,VisualSearchFaces,2024.2.4,Win32,60.24096386,,,,,,,,262.6714,262.9331,262.9332,264.9328,practice1,f,1,0,38,38,36,1,0,top_left,threatening,no_target,0.5506,,,,,,,,,,,,,,,,,
,,,,,799384,m,y,r,n,14,0,2025-04-05_15h35.03.235,VisualSearchFaces,2024.2.4,Win32,60.24096386,,,,,,,,265.9383,266.1991,266.1992,268.199,practice1,f,1,0,39,39,21,1,0,top_left,neutral,no_target,0.4661,,,,,,,,,,,,,,,,,
,,,,,799384,m,y,r,n,14,0,2025-04-05_15h35.03.235,VisualSearchFaces,2024.2.4,Win32,60.24096386,,,314.6835,343.9737,space,29.2553,,344.9783,345.0891,345.0891,347.0894,practice2,,0,0,0,0,7,1,1,top_right,neutral,threatening,,,268.2007,314.6773,space,46.4426,,,,,,,,,,,,
,,,,,799384,m,y,r,n,14,0,2025-04-05_15h35.03.235,VisualSearchFaces,2024.2.4,Win32,60.24096386,,,,,,,,348.0945,348.2023,348.2024,350.2058,practice2,,0,0,1,1,30,1,0,centre,friendly,no_target,,,,,,,,,,,,,,,,,,
,,,,,799384,m,y,r,n,14,0,2025-04-05_15h35.03.235,VisualSearchFaces,2024.2.4,Win32,60.24096386,,,,,,,,351.2107,351.3091,351.3092,353.3053,practice2,f,1,0,2,2,33,1,0,bottom_left,friendly,no_target,0.9478,,,,,,,,,,,,,,,,,
,,,,,799384,m,y,r,n,14,0,2025-04-05_15h35.03.235,VisualSearchFaces,2024.2.4,Win32,60.24096386,,,,,,,,354.3103,354.411,354.4111,356.4049,practice2,j,1,0,3,3,9,1,1,bottom_right,neutral,threatening,0.5789,,,,,,,,,,,,,,,,,
,,,,,799384,m,y,r,n,14,0,2025-04-05_15h35.03.235,VisualSearchFaces,2024.2.4,Win32,60.24096386,,,,,,,,357.4093,357.512,357.512,359.5045,practice2,j,1,0,4,4,19,1,1,bottom_right,threatening,neutral,0.527,,,,,,,,,,,,,,,,,
,,,,,799384,m,y,r,n,14,0,2025-04-05_15h35.03.235,VisualSearchFaces,2024.2.4,Win32,60.24096386,,,,,,,,360.5098,360.6086,360.6086,362.6041,practice2,f,1,0,5,5,36,1,0,top_left,threatening,no_target,0.5795,,,,,,,,,,,,,,,,,
,,,,,799384,m,y,r,n,14,0,2025-04-05_15h35.03.235,VisualSearchFaces,2024.2.4,Win32,60.24096386,,,,,,,,363.609,363.7109,363.7109,365.7039,practice2,j,1,0,6,6,6,1,1,top_left,neutral,threatening,0.4942,,,,,,,,,,,,,,,,,
,,,,,799384,m,y,r,n,14,0,2025-04-05_15h35.03.235,VisualSearchFaces,2024.2.4,Win32,60.24096386,,,,,,,,366.7091,366.8135,366.8135,368.8175,practice2,j,1,0,7,7,17,1,1,top_right,threatening,neutral,0.4236,,,,,,,,,,,,,,,,,
,,,,,799384,m,y,r,n,14,0,2025-04-05_15h35.03.235,VisualSearchFaces,2024.2.4,Win32,60.24096386,,,,,,,,369.8219,369.9255,369.9255,371.9198,practice2,f,1,0,8,8,38,1,0,bottom_left,threatening,no_target,0.6614,,,,,,,,,,,,,,,,,
,,,,,799384,m,y,r,n,14,0,2025-04-05_15h35.03.235,VisualSearchFaces,2024.2.4,Win32,60.24096386,,,,,,,,372.9247,373.0226,373.0227,375.0192,practice2,f,1,0,9,9,35,1,0,centre,threatening,no_target,0.6969,,,,,,,,,,,,,,,,,
,,,,,799384,m,y,r,n,14,0,2025-04-05_15h35.03.235,VisualSearchFaces,2024.2.4,Win32,60.24096386,,,,,,,,376.0248,376.1272,376.1272,378.1163,practice2,f,1,0,10,10,27,1,0,top_right,neutral,no_target,0.7093,,,,,,,,,,,,,,,,,
,,,,,799384,m,y,r,n,14,0,2025-04-05_15h35.03.235,VisualSearchFaces,2024.2.4,Win32,60.24096386,,,,,,,,379.1214,379.2264,379.2266,381.2187,practice2,f,1,0,11,11,26,1,0,top_left,neutral,no_target,0.4762,,,,,,,,,,,,,,,,,
,,,,,799384,m,y,r,n,14,0,2025-04-05_15h35.03.235,VisualSearchFaces,2024.2.4,Win32,60.24096386,,,,,,,,382.2232,382.3355,382.3355,384.3348,practice2,j,1,0,12,12,8,1,1,bottom_left,neutral,threatening,0.3934,,,,,,,,,,,,,,,,,
,,,,,799384,m,y,r,n,14,0,2025-04-05_15h35.03.235,VisualSearchFaces,2024.2.4,Win32,60.24096386,,,,,,,,385.3395,385.4354,385.4354,387.4345,practice2,j,1,0,13,13,13,1,1,bottom_left,friendly,neutral,0.483,,,,,,,,,,,,,,,,,
,,,,,799384,m,y,r,n,14,0,2025-04-05_15h35.03.235,VisualSearchFaces,2024.2.4,Win32,60.24096386,,,,,,,,388.4393,388.5408,388.5409,390.5341,practice2,f,1,0,14,14,20,1,0,centre,neutral,no_target,0.5611,,,,,,,,,,,,,,,,,
,,,,,799384,m,y,r,n,14,0,2025-04-05_15h35.03.235,VisualSearchFaces,2024.2.4,Win32,60.24096386,,,,,,,,391.5386,391.6488,391.6488,393.6491,practice2,j,1,0,15,15,15,1,1,centre,threatening,neutral,0.8351,,,,,,,,,,,,,,,,,
,,,,,799384,m,y,r,n,14,0,2025-04-05_15h35.03.235,VisualSearchFaces,2024.2.4,Win32,60.24096386,,,,,,,,394.6536,394.7497,394.7498,396.75,practice2,f,1,0,16,16,37,1,0,top_right,threatening,no_target,0.7507,,,,,,,,,,,,,,,,,
,,,,,799384,m,y,r,n,14,0,2025-04-05_15h35.03.235,VisualSearchFaces,2024.2.4,Win32,60.24096386,,,,,,,,397.7547,397.8501,397.8501,399.8493,practice2,f,1,0,17,17,25,1,0,centre,neutral,no_target,0.5515,,,,,,,,,,,,,,,,,
,,,,,799384,m,y,r,n,14,0,2025-04-05_15h35.03.235,VisualSearchFaces,2024.2.4,Win32,60.24096386,,,,,,,,400.854,400.9545,400.9545,402.9491,practice2,j,1,0,18,18,10,1,1,centre,friendly,neutral,0.6455,,,,,,,,,,,,,,,,,
,,,,,799384,m,y,r,n,14,0,2025-04-05_15h35.03.235,VisualSearchFaces,2024.2.4,Win32,60.24096386,,,,,,,,403.9539,404.0549,404.055,406.0488,practice2,f,1,0,19,19,21,1,0,top_left,neutral,no_target,0.6784,,,,,,,,,,,,,,,,,
,,,,,799384,m,y,r,n,14,0,2025-04-05_15h35.03.235,VisualSearchFaces,2024.2.4,Win32,60.24096386,,,,,,,,407.0537,407.1569,407.157,409.1482,practice2,f,1,0,20,20,39,1,0,bottom_right,threatening,no_target,0.6794,,,,,,,,,,,,,,,,,
,,,,,799384,m,y,r,n,14,0,2025-04-05_15h35.03.235,VisualSearchFaces,2024.2.4,Win32,60.24096386,,,,,,,,410.1514,410.2561,410.2562,412.2481,practice2,f,1,0,21,21,22,1,0,top_right,neutral,no_target,0.5167,,,,,,,,,,,,,,,,,
,,,,,799384,m,y,r,n,14,0,2025-04-05_15h35.03.235,VisualSearchFaces,2024.2.4,Win32,60.24096386,,,,,,,,413.2513,413.3558,413.3559,415.3477,practice2,f,1,0,22,22,28,1,0,bottom_left,neutral,no_target,0.6428,,,,,,,,,,,,,,,,,
,,,,,799384,m,y,r,n,14,0,2025-04-05_15h35.03.235,VisualSearchFaces,2024.2.4,Win32,60.24096386,,,,,,,,416.3457,416.4459,416.446,418.4444,practice2,f,1,0,23,23,23,1,0,bottom_left,neutral,no_target,0.583,,,,,,,,,,,,,,,,,
,,,,,799384,m,y,r,n,14,0,2025-04-05_15h35.03.235,VisualSearchFaces,2024.2.4,Win32,60.24096386,,,,,,,,419.4463,419.553,419.5531,421.5467,practice2,j,1,0,24,24,2,1,1,top_right,neutral,friendly,0.6112,,,,,,,,,,,,,,,,,
,,,,,799384,m,y,r,n,14,0,2025-04-05_15h35.03.235,VisualSearchFaces,2024.2.4,Win32,60.24096386,,,,,,,,422.5511,422.6493,422.6494,424.6466,practice2,f,1,0,25,25,34,1,0,bottom_right,friendly,no_target,0.7148,,,,,,,,,,,,,,,,,
,,,,,799384,m,y,r,n,14,0,2025-04-05_15h35.03.235,VisualSearchFaces,2024.2.4,Win32,60.24096386,,,,,,,,425.6516,425.7614,425.7614,427.7628,practice2,f,1,0,26,26,32,1,0,top_right,friendly,no_target,0.651,,,,,,,,,,,,,,,,,
,,,,,799384,m,y,r,n,14,0,2025-04-05_15h35.03.235,VisualSearchFaces,2024.2.4,Win32,60.24096386,,,,,,,,428.7672,428.8697,428.8697,430.8625,practice2,j,1,0,27,27,5,1,1,centre,neutral,threatening,0.6104,,,,,,,,,,,,,,,,,
,,,,,799384,m,y,r,n,14,0,2025-04-05_15h35.03.235,VisualSearchFaces,2024.2.4,Win32,60.24096386,,,,,,,,431.8671,431.9771,431.9772,433.9789,practice2,j,1,0,28,28,0,1,1,centre,neutral,friendly,0.7324,,,,,,,,,,,,,,,,,
,,,,,799384,m,y,r,n,14,0,2025-04-05_15h35.03.235,VisualSearchFaces,2024.2.4,Win32,60.24096386,,,,,,,,434.9838,435.0954,435.0954,437.0952,practice2,f,1,0,29,29,29,1,0,bottom_right,neutral,no_target,0.5177,,,,,,,,,,,,,,,,,
,,,,,799384,m,y,r,n,14,0,2025-04-05_15h35.03.235,VisualSearchFaces,2024.2.4,Win32,60.24096386,,,,,,,,438.1001,438.1984,438.1984,440.1945,practice2,f,1,0,30,30,31,1,0,top_left,friendly,no_target,1.2138,,,,,,,,,,,,,,,,,
,,,,,799384,m,y,r,n,14,0,2025-04-05_15h35.03.235,VisualSearchFaces,2024.2.4,Win32,60.24096386,,,,,,,,441.1994,441.299,441.299,443.2939,practice2,f,1,0,31,31,24,1,0,bottom_right,neutral,no_target,0.8265,,,,,,,,,,,,,,,,,
,,,,,799384,m,y,r,n,14,0,2025-04-05_15h35.03.235,VisualSearchFaces,2024.2.4,Win32,60.24096386,,,,,,,,444.2968,444.4044,444.4045,446.3939,practice2,j,1,0,32,32,3,1,1,bottom_left,neutral,friendly,0.4897,,,,,,,,,,,,,,,,,
,,,,,799384,m,y,r,n,14,0,2025-04-05_15h35.03.235,VisualSearchFaces,2024.2.4,Win32,60.24096386,,,,,,,,447.3983,447.4963,447.4963,449.4933,practice2,j,1,0,33,33,4,1,1,bottom_right,neutral,friendly,0.5818,,,,,,,,,,,,,,,,,
,,,,,799384,m,y,r,n,14,0,2025-04-05_15h35.03.235,VisualSearchFaces,2024.2.4,Win32,60.24096386,,,,,,,,450.498,450.5995,450.5995,452.5931,practice2,j,1,0,34,34,12,1,1,top_right,friendly,neutral,0.5304,,,,,,,,,,,,,,,,,
,,,,,799384,m,y,r,n,14,0,2025-04-05_15h35.03.235,VisualSearchFaces,2024.2.4,Win32,60.24096386,,,,,,,,453.5976,453.6976,453.6977,455.6926,practice2,j,1,0,35,35,11,1,1,top_left,friendly,neutral,0.6128,,,,,,,,,,,,,,,,,
,,,,,799384,m,y,r,n,14,0,2025-04-05_15h35.03.235,VisualSearchFaces,2024.2.4,Win32,60.24096386,,,,,,,,456.6973,456.7961,456.7961,458.7924,practice2,j,1,0,36,36,18,1,1,bottom_left,threatening,neutral,0.5804,,,,,,,,,,,,,,,,,
,,,,,799384,m,y,r,n,14,0,2025-04-05_15h35.03.235,VisualSearchFaces,2024.2.4,Win32,60.24096386,,,,,,,,459.796,459.9085,459.9086,461.9086,practice2,j,1,0,37,37,16,1,1,top_left,threatening,neutral,0.5689,,,,,,,,,,,,,,,,,
,,,,,799384,m,y,r,n,14,0,2025-04-05_15h35.03.235,VisualSearchFaces,2024.2.4,Win32,60.24096386,,,,,,,,462.9128,463.0136,463.0136,465.0084,practice2,j,1,0,38,38,14,1,1,bottom_right,friendly,neutral,0.4793,,,,,,,,,,,,,,,,,
,,,,,799384,m,y,r,n,14,0,2025-04-05_15h35.03.235,VisualSearchFaces,2024.2.4,Win32,60.24096386,,,,,,,,466.0135,466.1247,466.1248,468.1246,practice2,j,1,0,39,39,1,1,1,top_left,neutral,friendly,0.4846,,,,,,,,,,,,,,,,,
,,,,,799384,m,y,r,n,14,0,2025-04-05_15h35.03.235,VisualSearchFaces,2024.2.4,Win32,60.24096386,,,494.0117,505.087,space,11.0286,,506.091,506.1897,506.1898,508.1863,block1,f,1,0,0,0,22,1,0,top_right,neutral,no_target,0.8989,,468.1302,494.0048,space,25.8415,,,,,,,,,,,,
,,,,,799384,m,y,r,n,14,0,2025-04-05_15h35.03.235,VisualSearchFaces,2024.2.4,Win32,60.24096386,,,,,,,,509.1908,509.3027,509.3028,511.3026,block1,j,1,0,1,1,15,1,1,centre,threatening,neutral,0.5171,,,,,,,,,,,,,,,,,
,,,,,799384,m,y,r,n,14,0,2025-04-05_15h35.03.235,VisualSearchFaces,2024.2.4,Win32,60.24096386,,,,,,,,512.3073,512.4174,512.4175,514.4161,block1,f,1,0,2,2,36,1,0,top_left,threatening,no_target,0.6504,,,,,,,,,,,,,,,,,
,,,,,799384,m,y,r,n,14,0,2025-04-05_15h35.03.235,VisualSearchFaces,2024.2.4,Win32,60.24096386,,,,,,,,515.4228,515.5298,515.5299,517.5186,block1,j,1,0,3,3,14,1,1,bottom_right,friendly,neutral,0.6056,,,,,,,,,,,,,,,,,
,,,,,799384,m,y,r,n,14,0,2025-04-05_15h35.03.235,VisualSearchFaces,2024.2.4,Win32,60.24096386,,,,,,,,518.5228,518.6261,518.6261,520.6179,block1,f,1,0,4,4,25,1,0,centre,neutral,no_target,0.5257,,,,,,,,,,,,,,,,,
,,,,,799384,m,y,r,n,14,0,2025-04-05_15h35.03.235,VisualSearchFaces,2024.2.4,Win32,60.24096386,,,,,,,,521.6213,521.7325,521.7326,523.7344,block1,f,1,0,5,5,31,1,0,top_left,friendly,no_target,0.6701,,,,,,,,,,,,,,,,,
,,,,,799384,m,y,r,n,14,0,2025-04-05_15h35.03.235,VisualSearchFaces,2024.2.4,Win32,60.24096386,,,,,,,,524.739,524.8435,524.8436,526.8335,block1,f,1,0,6,6,24,1,0,bottom_right,neutral,no_target,0.5572,,,,,,,,,,,,,,,,,
,,,,,799384,m,y,r,n,14,0,2025-04-05_15h35.03.235,VisualSearchFaces,2024.2.4,Win32,60.24096386,,,,,,,,527.8384,527.9359,527.9359,529.9336,block1,j,1,0,7,7,9,1,1,bottom_right,neutral,threatening,0.4816,,,,,,,,,,,,,,,,,
,,,,,799384,m,y,r,n,14,0,2025-04-05_15h35.03.235,VisualSearchFaces,2024.2.4,Win32,60.24096386,,,,,,,,530.9384,531.0468,531.047,533.05,block1,j,0,0,8,8,30,1,0,centre,friendly,no_target,0.573,,,,,,,,,,,,,,,,,
,,,,,799384,m,y,r,n,14,0,2025-04-05_15h35.03.235,VisualSearchFaces,2024.2.4,Win32,60.24096386,,,,,,,,534.0545,534.1533,534.1534,536.1495,block1,f,1,0,9,9,27,1,0,top_right,neutral,no_target,0.5801,,,,,,,,,,,,,,,,,
,,,,,799384,m,y,r,n,14,0,2025-04-05_15h35.03.235,VisualSearchFaces,2024.2.4,Win32,60.24096386,,,,,,,,537.1544,537.2584,537.2585,539.2492,block1,f,1,0,10,10,32,1,0,top_right,friendly,no_target,0.639,,,,,,,,,,,,,,,,,
,,,,,799384,m,y,r,n,14,0,2025-04-05_15h35.03.235,VisualSearchFaces,2024.2.4,Win32,60.24096386,,,,,,,,540.2541,540.3582,540.3583,542.3489,block1,f,1,0,11,11,39,1,0,bottom_right,threatening,no_target,0.5418,,,,,,,,,,,,,,,,,
,,,,,799384,m,y,r,n,14,0,2025-04-05_15h35.03.235,VisualSearchFaces,2024.2.4,Win32,60.24096386,,,,,,,,543.3537,543.4651,543.4652,545.465,block1,f,1,0,12,12,21,1,0,top_left,neutral,no_target,0.5838,,,,,,,,,,,,,,,,,
,,,,,799384,m,y,r,n,14,0,2025-04-05_15h35.03.235,VisualSearchFaces,2024.2.4,Win32,60.24096386,,,,,,,,546.4697,546.5731,546.5732,548.5648,block1,f,1,0,13,13,28,1,0,bottom_left,neutral,no_target,0.3604,,,,,,,,,,,,,,,,,
,,,,,799384,m,y,r,n,14,0,2025-04-05_15h35.03.235,VisualSearchFaces,2024.2.4,Win32,60.24096386,,,,,,,,549.5691,549.679,549.679,551.681,block1,j,1,0,14,14,11,1,1,top_left,friendly,neutral,0.4211,,,,,,,,,,,,,,,,,
,,,,,799384,m,y,r,n,14,0,2025-04-05_15h35.03.235,VisualSearchFaces,2024.2.4,Win32,60.24096386,,,,,,,,552.6853,552.7974,552.7975,554.7972,block1,f,1,0,15,15,20,1,0,centre,neutral,no_target,0.6333,,,,,,,,,,,,,,,,,
,,,,,799384,m,y,r,n,14,0,2025-04-05_15h35.03.235,VisualSearchFaces,2024.2.4,Win32,60.24096386,,,,,,,,555.802,555.9045,555.9045,557.8967,block1,j,1,0,16,16,12,1,1,top_right,friendly,neutral,0.6852,,,,,,,,,,,,,,,,,
,,,,,799384,m,y,r,n,14,0,2025-04-05_15h35.03.235,VisualSearchFaces,2024.2.4,Win32,60.24096386,,,,,,,,558.8998,559.0018,559.0018,560.993,block1,j,1,0,17,17,7,1,1,top_right,neutral,threatening,0.5275,,,,,,,,,,,,,,,,,
,,,,,799384,m,y,r,n,14,0,2025-04-05_15h35.03.235,VisualSearchFaces,2024.2.4,Win32,60.24096386,,,,,,,,562.0014,562.0966,562.0967,564.0962,block1,f,1,0,18,18,35,1,0,centre,threatening,no_target,0.6182,,,,,,,,,,,,,,,,,
,,,,,799384,m,y,r,n,14,0,2025-04-05_15h35.03.235,VisualSearchFaces,2024.2.4,Win32,60.24096386,,,,,,,,565.1004,565.1988,565.1988,567.1958,block1,j,1,0,19,19,6,1,1,top_left,neutral,threatening,0.6175,,,,,,,,,,,,,,,,,
,,,,,799384,m,y,r,n,14,0,2025-04-05_15h35.03.235,VisualSearchFaces,2024.2.4,Win32,60.24096386,,,,,,,,568.2,568.3104,568.3105,570.3093,block1,j,1,0,20,20,5,1,1,centre,neutral,threatening,0.4335,,,,,,,,,,,,,,,,,
,,,,,799384,m,y,r,n,14,0,2025-04-05_15h35.03.235,VisualSearchFaces,2024.2.4,Win32,60.24096386,,,,,,,,571.3132,571.4165,571.4165,573.4116,block1,j,1,0,21,21,19,1,1,bottom_right,threatening,neutral,0.5794,,,,,,,,,,,,,,,,,
,,,,,799384,m,y,r,n,14,0,2025-04-05_15h35.03.235,VisualSearchFaces,2024.2.4,Win32,60.24096386,,,,,,,,574.416,574.5281,574.5281,576.528,block1,f,1,0,22,22,26,1,0,top_left,neutral,no_target,0.5841,,,,,,,,,,,,,,,,,
,,,,,799384,m,y,r,n,14,0,2025-04-05_15h35.03.235,VisualSearchFaces,2024.2.4,Win32,60.24096386,,,,,,,,577.5325,577.6375,577.6375,579.6273,block1,j,1,0,23,23,16,1,1,top_left,threatening,neutral,0.5732,,,,,,,,,,,,,,,,,
,,,,,799384,m,y,r,n,14,0,2025-04-05_15h35.03.235,VisualSearchFaces,2024.2.4,Win32,60.24096386,,,,,,,,580.6308,580.7326,580.7327,582.726,block1,f,1,0,24,24,34,1,0,bottom_right,friendly,no_target,1.3442,,,,,,,,,,,,,,,,,
,,,,,799384,m,y,r,n,14,0,2025-04-05_15h35.03.235,VisualSearchFaces,2024.2.4,Win32,60.24096386,,,,,,,,583.7297,583.8328,583.8328,585.8268,block1,j,1,0,25,25,3,1,1,bottom_left,neutral,friendly,0.7586,,,,,,,,,,,,,,,,,
,,,,,799384,m,y,r,n,14,0,2025-04-05_15h35.03.235,VisualSearchFaces,2024.2.4,Win32,60.24096386,,,,,,,,586.8291,586.9287,586.9288,588.9264,block1,j,1,0,26,26,13,1,1,bottom_left,friendly,neutral,0.665,,,,,,,,,,,,,,,,,
,,,,,799384,m,y,r,n,14,0,2025-04-05_15h35.03.235,VisualSearchFaces,2024.2.4,Win32,60.24096386,,,,,,,,589.9311,590.0428,590.0429,592.0427,block1,j,1,0,27,27,4,1,1,bottom_right,neutral,friendly,1.152,,,,,,,,,,,,,,,,,
,,,,,799384,m,y,r,n,14,0,2025-04-05_15h35.03.235,VisualSearchFaces,2024.2.4,Win32,60.24096386,,,,,,,,593.047,593.151,593.1511,595.1424,block1,j,1,0,28,28,1,1,1,top_left,neutral,friendly,0.5908,,,,,,,,,,,,,,,,,
,,,,,799384,m,y,r,n,14,0,2025-04-05_15h35.03.235,VisualSearchFaces,2024.2.4,Win32,60.24096386,,,,,,,,596.1466,596.2587,596.2588,598.2585,block1,j,1,0,29,29,17,1,1,top_right,threatening,neutral,0.9044,,,,,,,,,,,,,,,,,
,,,,,799384,m,y,r,n,14,0,2025-04-05_15h35.03.235,VisualSearchFaces,2024.2.4,Win32,60.24096386,,,,,,,,599.2637,599.375,599.375,601.3748,block1,j,1,0,30,30,0,1,1,centre,neutral,friendly,0.7011,,,,,,,,,,,,,,,,,
,,,,,799384,m,y,r,n,14,0,2025-04-05_15h35.03.235,VisualSearchFaces,2024.2.4,Win32,60.24096386,,,,,,,,602.3799,602.4896,602.4896,604.491,block1,j,1,0,31,31,8,1,1,bottom_left,neutral,threatening,0.6677,,,,,,,,,,,,,,,,,
,,,,,799384,m,y,r,n,14,0,2025-04-05_15h35.03.235,VisualSearchFaces,2024.2.4,Win32,60.24096386,,,,,,,,605.4953,605.5912,605.5912,607.5907,block1,j,1,0,32,32,18,1,1,bottom_left,threatening,neutral,0.6839,,,,,,,,,,,,,,,,,
,,,,,799384,m,y,r,n,14,0,2025-04-05_15h35.03.235,VisualSearchFaces,2024.2.4,Win32,60.24096386,,,,,,,,608.595,608.7073,608.7074,610.707,block1,,0,0,33,33,37,1,0,top_right,threatening,no_target,,,,,,,,,,,,,,,,,,
,,,,,799384,m,y,r,n,14,0,2025-04-05_15h35.03.235,VisualSearchFaces,2024.2.4,Win32,60.24096386,,,,,,,,611.7116,611.8235,611.8236,613.8232,block1,j,1,0,34,34,2,1,1,top_right,neutral,friendly,0.6847,,,,,,,,,,,,,,,,,
,,,,,799384,m,y,r,n,14,0,2025-04-05_15h35.03.235,VisualSearchFaces,2024.2.4,Win32,60.24096386,,,,,,,,614.8276,614.9393,614.9394,616.9394,block1,j,1,0,35,35,10,1,1,centre,friendly,neutral,0.7186,,,,,,,,,,,,,,,,,
,,,,,799384,m,y,r,n,14,0,2025-04-05_15h35.03.235,VisualSearchFaces,2024.2.4,Win32,60.24096386,,,,,,,,617.9438,618.0426,618.0427,620.0393,block1,j,0,0,36,36,33,1,0,bottom_left,friendly,no_target,0.5806,,,,,,,,,,,,,,,,,
,,,,,799384,m,y,r,n,14,0,2025-04-05_15h35.03.235,VisualSearchFaces,2024.2.4,Win32,60.24096386,,,,,,,,621.0432,621.1558,621.1558,623.1556,block1,f,1,0,37,37,23,1,0,bottom_left,neutral,no_target,0.4347,,,,,,,,,,,,,,,,,
,,,,,799384,m,y,r,n,14,0,2025-04-05_15h35.03.235,VisualSearchFaces,2024.2.4,Win32,60.24096386,,,,,,,,624.1601,624.2636,624.2637,626.2551,block1,f,1,0,38,38,29,1,0,bottom_right,neutral,no_target,0.5558,,,,,,,,,,,,,,,,,
,,,,,799384,m,y,r,n,14,0,2025-04-05_15h35.03.235,VisualSearchFaces,2024.2.4,Win32,60.24096386,,,,,,,,627.2594,627.3717,627.3717,629.3714,block1,j,0,0,39,39,38,1,0,bottom_left,threatening,no_target,0.785,,,,,,,,,,,,,,,,,
,,,,,799384,m,y,r,n,14,0,2025-04-05_15h35.03.235,VisualSearchFaces,2024.2.4,Win32,60.24096386,,,,,,,,630.3759,630.4809,630.481,632.471,block1,f,1,1,0,40,32,1,0,top_right,friendly,no_target,1.5568,,,,,,,,,,,,,,,,,
,,,,,799384,m,y,r,n,14,0,2025-04-05_15h35.03.235,VisualSearchFaces,2024.2.4,Win32,60.24096386,,,,,,,,633.4764,633.5874,633.5875,635.5873,block1,j,1,1,1,41,18,1,1,bottom_left,threatening,neutral,0.8852,,,,,,,,,,,,,,,,,
,,,,,799384,m,y,r,n,14,0,2025-04-05_15h35.03.235,VisualSearchFaces,2024.2.4,Win32,60.24096386,,,,,,,,636.5915,636.7039,636.7039,638.7036,block1,j,1,1,2,42,3,1,1,bottom_left,neutral,friendly,0.5834,,,,,,,,,,,,,,,,,
,,,,,799384,m,y,r,n,14,0,2025-04-05_15h35.03.235,VisualSearchFaces,2024.2.4,Win32,60.24096386,,,,,,,,639.707,639.804,639.804,641.803,block1,j,1,1,3,43,14,1,1,bottom_right,friendly,neutral,0.5328,,,,,,,,,,,,,,,,,
,,,,,799384,m,y,r,n,14,0,2025-04-05_15h35.03.235,VisualSearchFaces,2024.2.4,Win32,60.24096386,,,,,,,,642.8071,642.9104,642.9104,644.903,block1,j,1,1,4,44,4,1,1,bottom_right,neutral,friendly,0.577,,,,,,,,,,,,,,,,,
,,,,,799384,m,y,r,n,14,0,2025-04-05_15h35.03.235,VisualSearchFaces,2024.2.4,Win32,60.24096386,,,,,,,,645.9088,646.0195,646.0196,648.019,block1,j,1,1,5,45,8,1,1,bottom_left,neutral,threatening,0.7022,,,,,,,,,,,,,,,,,
,,,,,799384,m,y,r,n,14,0,2025-04-05_15h35.03.235,VisualSearchFaces,2024.2.4,Win32,60.24096386,,,,,,,,649.0242,649.12,649.12,651.1188,block1,j,1,1,6,46,10,1,1,centre,friendly,neutral,1.2335,,,,,,,,,,,,,,,,,
,,,,,799384,m,y,r,n,14,0,2025-04-05_15h35.03.235,VisualSearchFaces,2024.2.4,Win32,60.24096386,,,,,,,,652.123,652.2297,652.2297,654.2185,block1,f,0,1,7,47,19,1,1,bottom_right,threatening,neutral,0.9889,,,,,,,,,,,,,,,,,
,,,,,799384,m,y,r,n,14,0,2025-04-05_15h35.03.235,VisualSearchFaces,2024.2.4,Win32,60.24096386,,,,,,,,655.223,655.3186,655.3186,657.3178,block1,f,1,1,8,48,25,1,0,centre,neutral,no_target,1.7662,,,,,,,,,,,,,,,,,
,,,,,799384,m,y,r,n,14,0,2025-04-05_15h35.03.235,VisualSearchFaces,2024.2.4,Win32,60.24096386,,,,,,,,658.3226,658.4203,658.4203,660.4176,block1,f,1,1,9,49,29,1,0,bottom_right,neutral,no_target,0.8143,,,,,,,,,,,,,,,,,
,,,,,799384,m,y,r,n,14,0,2025-04-05_15h35.03.235,VisualSearchFaces,2024.2.4,Win32,60.24096386,,,,,,,,661.4221,661.5258,661.5258,663.5171,block1,f,1,1,10,50,34,1,0,bottom_right,friendly,no_target,1.0921,,,,,,,,,,,,,,,,,
,,,,,799384,m,y,r,n,14,0,2025-04-05_15h35.03.235,VisualSearchFaces,2024.2.4,Win32,60.24096386,,,,,,,,664.5214,664.6335,664.6336,666.6336,block1,f,1,1,11,51,36,1,0,top_left,threatening,no_target,1.2507,,,,,,,,,,,,,,,,,
,,,,,799384,m,y,r,n,14,0,2025-04-05_15h35.03.235,VisualSearchFaces,2024.2.4,Win32,60.24096386,,,,,,,,667.6378,667.7414,667.7415,669.7331,block1,f,1,1,12,52,20,1,0,centre,neutral,no_target,0.8253,,,,,,,,,,,,,,,,,
,,,,,799384,m,y,r,n,14,0,2025-04-05_15h35.03.235,VisualSearchFaces,2024.2.4,Win32,60.24096386,,,,,,,,670.7376,670.8495,670.8495,672.8494,block1,j,0,1,13,53,37,1,0,top_right,threatening,no_target,0.4855,,,,,,,,,,,,,,,,,
,,,,,799384,m,y,r,n,14,0,2025-04-05_15h35.03.235,VisualSearchFaces,2024.2.4,Win32,60.24096386,,,,,,,,673.854,673.9658,673.9659,675.9656,block1,f,1,1,14,54,26,1,0,top_left,neutral,no_target,0.6184,,,,,,,,,,,,,,,,,
,,,,,799384,m,y,r,n,14,0,2025-04-05_15h35.03.235,VisualSearchFaces,2024.2.4,Win32,60.24096386,,,,,,,,676.9707,677.0726,677.0727,679.0653,block1,f,1,1,15,55,28,1,0,bottom_left,neutral,no_target,0.4769,,,,,,,,,,,,,,,,,
,,,,,799384,m,y,r,n,14,0,2025-04-05_15h35.03.235,VisualSearchFaces,2024.2.4,Win32,60.24096386,,,,,,,,680.0694,680.1732,680.1732,682.1651,block1,f,1,1,16,56,27,1,0,top_right,neutral,no_target,0.5079,,,,,,,,,,,,,,,,,
,,,,,799384,m,y,r,n,14,0,2025-04-05_15h35.03.235,VisualSearchFaces,2024.2.4,Win32,60.24096386,,,,,,,,683.1681,683.2649,683.2649,685.2646,block1,f,1,1,17,57,38,1,0,bottom_left,threatening,no_target,0.8841,,,,,,,,,,,,,,,,,
,,,,,799384,m,y,r,n,14,0,2025-04-05_15h35.03.235,VisualSearchFaces,2024.2.4,Win32,60.24096386,,,,,,,,686.2693,686.3708,686.3708,688.3644,block1,f,1,1,18,58,24,1,0,bottom_right,neutral,no_target,0.7107,,,,,,,,,,,,,,,,,
,,,,,799384,m,y,r,n,14,0,2025-04-05_15h35.03.235,VisualSearchFaces,2024.2.4,Win32,60.24096386,,,,,,,,689.3694,689.4722,689.4723,691.4638,block1,f,1,1,19,59,35,1,0,centre,threatening,no_target,1.2086,,,,,,,,,,,,,,,,,
,,,,,799384,m,y,r,n,14,0,2025-04-05_15h35.03.235,VisualSearchFaces,2024.2.4,Win32,60.24096386,,,,,,,,692.4682,692.5636,692.5637,694.5634,block1,j,1,1,20,60,11,1,1,top_left,friendly,neutral,0.5683,,,,,,,,,,,,,,,,,
,,,,,799384,m,y,r,n,14,0,2025-04-05_15h35.03.235,VisualSearchFaces,2024.2.4,Win32,60.24096386,,,,,,,,695.5686,695.6642,695.6643,697.663,block1,f,1,1,21,61,31,1,0,top_left,friendly,no_target,0.6829,,,,,,,,,,,,,,,,,
,,,,,799384,m,y,r,n,14,0,2025-04-05_15h35.03.235,VisualSearchFaces,2024.2.4,Win32,60.24096386,,,,,,,,698.6673,698.7764,698.7765,700.7791,block1,j,1,1,22,62,9,1,1,bottom_right,neutral,threatening,0.4895,,,,,,,,,,,,,,,,,
,,,,,799384,m,y,r,n,14,0,2025-04-05_15h35.03.235,VisualSearchFaces,2024.2.4,Win32,60.24096386,,,,,,,,701.7819,701.8832,701.8833,703.8787,block1,f,1,1,23,63,23,1,0,bottom_left,neutral,no_target,0.6006,,,,,,,,,,,,,,,,,
,,,,,799384,m,y,r,n,14,0,2025-04-05_15h35.03.235,VisualSearchFaces,2024.2.4,Win32,60.24096386,,,,,,,,704.8819,704.9954,704.9954,706.9951,block1,f,1,1,24,64,30,1,0,centre,friendly,no_target,0.7025,,,,,,,,,,,,,,,,,
,,,,,799384,m,y,r,n,14,0,2025-04-05_15h35.03.235,VisualSearchFaces,2024.2.4,Win32,60.24096386,,,,,,,,707.9979,708.1117,708.1117,710.1114,block1,f,1,1,25,65,39,1,0,bottom_right,threatening,no_target,0.5168,,,,,,,,,,,,,,,,,
,,,,,799384,m,y,r,n,14,0,2025-04-05_15h35.03.235,VisualSearchFaces,2024.2.4,Win32,60.24096386,,,,,,,,711.1144,711.2279,711.228,713.2273,block1,j,1,1,26,66,0,1,1,centre,neutral,friendly,0.6842,,,,,,,,,,,,,,,,,
,,,,,799384,m,y,r,n,14,0,2025-04-05_15h35.03.235,VisualSearchFaces,2024.2.4,Win32,60.24096386,,,,,,,,714.2304,714.3443,714.3443,716.3439,block1,j,1,1,27,67,5,1,1,centre,neutral,threatening,0.5173,,,,,,,,,,,,,,,,,
,,,,,799384,m,y,r,n,14,0,2025-04-05_15h35.03.235,VisualSearchFaces,2024.2.4,Win32,60.24096386,,,,,,,,717.3462,717.445,717.4451,719.4435,block1,j,1,1,28,68,15,1,1,centre,threatening,neutral,0.5671,,,,,,,,,,,,,,,,,
,,,,,799384,m,y,r,n,14,0,2025-04-05_15h35.03.235,VisualSearchFaces,2024.2.4,Win32,60.24096386,,,,,,,,720.4471,720.5598,720.5599,722.5597,block1,j,1,1,29,69,13,1,1,bottom_left,friendly,neutral,0.7183,,,,,,,,,,,,,,,,,
,,,,,799384,m,y,r,n,14,0,2025-04-05_15h35.03.235,VisualSearchFaces,2024.2.4,Win32,60.24096386,,,,,,,,723.5628,723.6763,723.6764,725.6763,block1,j,1,1,30,70,12,1,1,top_right,friendly,neutral,1.0005,,,,,,,,,,,,,,,,,
,,,,,799384,m,y,r,n,14,0,2025-04-05_15h35.03.235,VisualSearchFaces,2024.2.4,Win32,60.24096386,,,,,,,,726.6807,726.7777,726.7777,728.7758,block1,f,1,1,31,71,22,1,0,top_right,neutral,no_target,0.7327,,,,,,,,,,,,,,,,,
,,,,,799384,m,y,r,n,14,0,2025-04-05_15h35.03.235,VisualSearchFaces,2024.2.4,Win32,60.24096386,,,,,,,,729.78,729.8905,729.8905,731.8919,block1,j,1,1,32,72,7,1,1,top_right,neutral,threatening,0.8651,,,,,,,,,,,,,,,,,
,,,,,799384,m,y,r,n,14,0,2025-04-05_15h35.03.235,VisualSearchFaces,2024.2.4,Win32,60.24096386,,,,,,,,732.8954,733.0086,733.0087,735.0083,block1,j,1,1,33,73,2,1,1,top_right,neutral,friendly,0.5831,,,,,,,,,,,,,,,,,
,,,,,799384,m,y,r,n,14,0,2025-04-05_15h35.03.235,VisualSearchFaces,2024.2.4,Win32,60.24096386,,,,,,,,736.0129,736.1113,736.1113,738.1081,block1,j,1,1,34,74,6,1,1,top_left,neutral,threatening,1.0641,,,,,,,,,,,,,,,,,
,,,,,799384,m,y,r,n,14,0,2025-04-05_15h35.03.235,VisualSearchFaces,2024.2.4,Win32,60.24096386,,,,,,,,739.1099,739.2246,739.2246,741.224,block1,j,1,1,35,75,1,1,1,top_left,neutral,friendly,0.6005,,,,,,,,,,,,,,,,,
,,,,,799384,m,y,r,n,14,0,2025-04-05_15h35.03.235,VisualSearchFaces,2024.2.4,Win32,60.24096386,,,,,,,,742.2269,742.3286,742.3287,744.3237,block1,f,1,1,36,76,21,1,0,top_left,neutral,no_target,0.5454,,,,,,,,,,,,,,,,,
,,,,,799384,m,y,r,n,14,0,2025-04-05_15h35.03.235,VisualSearchFaces,2024.2.4,Win32,60.24096386,,,,,,,,745.3263,745.4402,745.4403,747.44,block1,f,1,1,37,77,33,1,0,bottom_left,friendly,no_target,1.3676,,,,,,,,,,,,,,,,,
,,,,,799384,m,y,r,n,14,0,2025-04-05_15h35.03.235,VisualSearchFaces,2024.2.4,Win32,60.24096386,,,,,,,,748.4429,748.5566,748.5566,750.5562,block1,j,1,1,38,78,16,1,1,top_left,threatening,neutral,0.8336,,,,,,,,,,,,,,,,,
,,,,,799384,m,y,r,n,14,0,2025-04-05_15h35.03.235,VisualSearchFaces,2024.2.4,Win32,60.24096386,,,,,,,,751.5592,751.6562,751.6563,753.6561,block1,j,1,1,39,79,17,1,1,top_right,threatening,neutral,0.5839,,,,,,,,,,,,,,,,,
,,,,,799384,m,y,r,n,14,0,2025-04-05_15h35.03.235,VisualSearchFaces,2024.2.4,Win32,60.24096386,,,761.9585,851.2274,space,89.2371,,852.2308,852.3439,852.344,854.3437,block2,f,1,0,0,0,22,1,0,top_right,neutral,no_target,0.6832,,753.6603,761.955,space,8.2642,,,,,,,,,,,,
,,,,,799384,m,y,r,n,14,0,2025-04-05_15h35.03.235,VisualSearchFaces,2024.2.4,Win32,60.24096386,,,,,,,,855.3479,855.4466,855.4466,857.4433,block2,f,1,0,1,1,29,1,0,bottom_right,neutral,no_target,0.4644,,,,,,,,,,,,,,,,,
,,,,,799384,m,y,r,n,14,0,2025-04-05_15h35.03.235,VisualSearchFaces,2024.2.4,Win32,60.24096386,,,,,,,,858.4441,858.5477,858.5477,860.5428,block2,f,1,0,2,2,23,1,0,bottom_left,neutral,no_target,0.3939,,,,,,,,,,,,,,,,,
,,,,,799384,m,y,r,n,14,0,2025-04-05_15h35.03.235,VisualSearchFaces,2024.2.4,Win32,60.24096386,,,,,,,,861.5475,861.6505,861.6506,863.6428,block2,j,1,0,3,3,8,1,1,bottom_left,neutral,threatening,0.5759,,,,,,,,,,,,,,,,,
,,,,,799384,m,y,r,n,14,0,2025-04-05_15h35.03.235,VisualSearchFaces,2024.2.4,Win32,60.24096386,,,,,,,,864.6469,864.7438,864.7438,866.7423,block2,f,1,0,4,4,25,1,0,centre,neutral,no_target,0.5505,,,,,,,,,,,,,,,,,
,,,,,799384,m,y,r,n,14,0,2025-04-05_15h35.03.235,VisualSearchFaces,2024.2.4,Win32,60.24096386,,,,,,,,867.7467,867.8463,867.8463,869.8419,block2,f,1,0,5,5,35,1,0,centre,threatening,no_target,0.8967,,,,,,,,,,,,,,,,,
,,,,,799384,m,y,r,n,14,0,2025-04-05_15h35.03.235,VisualSearchFaces,2024.2.4,Win32,60.24096386,,,,,,,,870.8448,870.9543,870.9544,872.9543,block2,f,1,0,6,6,24,1,0,bottom_right,neutral,no_target,0.6058,,,,,,,,,,,,,,,,,
,,,,,799384,m,y,r,n,14,0,2025-04-05_15h35.03.235,VisualSearchFaces,2024.2.4,Win32,60.24096386,,,,,,,,873.9553,874.0548,874.0548,876.0542,block2,f,1,0,7,7,27,1,0,top_right,neutral,no_target,0.5008,,,,,,,,,,,,,,,,,
,,,,,799384,m,y,r,n,14,0,2025-04-05_15h35.03.235,VisualSearchFaces,2024.2.4,Win32,60.24096386,,,,,,,,877.0613,877.1586,877.1587,879.1575,block2,f,1,0,8,8,21,1,0,top_left,neutral,no_target,0.4015,,,,,,,,,,,,,,,,,
,,,,,799384,m,y,r,n,14,0,2025-04-05_15h35.03.235,VisualSearchFaces,2024.2.4,Win32,60.24096386,,,,,,,,880.1618,880.267,880.267,882.2568,block2,f,1,0,9,9,31,1,0,top_left,friendly,no_target,1.0899,,,,,,,,,,,,,,,,,
,,,,,799384,m,y,r,n,14,0,2025-04-05_15h35.03.235,VisualSearchFaces,2024.2.4,Win32,60.24096386,,,,,,,,883.2636,883.3734,883.3734,885.3734,block2,j,1,0,10,10,9,1,1,bottom_right,neutral,threatening,0.5354,,,,,,,,,,,,,,,,,
,,,,,799384,m,y,r,n,14,0,2025-04-05_15h35.03.235,VisualSearchFaces,2024.2.4,Win32,60.24096386,,,,,,,,886.3767,886.475,886.4751,888.4729,block2,j,1,0,11,11,6,1,1,top_left,neutral,threatening,0.582,,,,,,,,,,,,,,,,,
,,,,,799384,m,y,r,n,14,0,2025-04-05_15h35.03.235,VisualSearchFaces,2024.2.4,Win32,60.24096386,,,,,,,,889.4775,889.5892,889.5893,891.5893,block2,j,1,0,12,12,16,1,1,top_left,threatening,neutral,0.6969,,,,,,,,,,,,,,,,,
,,,,,799384,m,y,r,n,14,0,2025-04-05_15h35.03.235,VisualSearchFaces,2024.2.4,Win32,60.24096386,,,,,,,,892.5938,892.6965,892.6965,894.6888,block2,j,1,0,13,13,13,1,1,bottom_left,friendly,neutral,0.8094,,,,,,,,,,,,,,,,,
,,,,,799384,m,y,r,n,14,0,2025-04-05_15h35.03.235,VisualSearchFaces,2024.2.4,Win32,60.24096386,,,,,,,,895.6932,895.7914,895.7915,897.7886,block2,j,1,0,14,14,14,1,1,bottom_right,friendly,neutral,0.5472,,,,,,,,,,,,,,,,,
,,,,,799384,m,y,r,n,14,0,2025-04-05_15h35.03.235,VisualSearchFaces,2024.2.4,Win32,60.24096386,,,,,,,,898.7927,898.8888,898.8888,900.888,block2,f,1,0,15,15,32,1,0,top_right,friendly,no_target,0.8663,,,,,,,,,,,,,,,,,
,,,,,799384,m,y,r,n,14,0,2025-04-05_15h35.03.235,VisualSearchFaces,2024.2.4,Win32,60.24096386,,,,,,,,901.8921,901.9922,901.9923,903.9877,block2,j,1,0,16,16,0,1,1,centre,neutral,friendly,0.6347,,,,,,,,,,,,,,,,,
,,,,,799384,m,y,r,n,14,0,2025-04-05_15h35.03.235,VisualSearchFaces,2024.2.4,Win32,60.24096386,,,,,,,,904.9922,905.095,905.0951,907.0873,block2,j,1,0,17,17,11,1,1,top_left,friendly,neutral,0.5176,,,,,,,,,,,,,,,,,
,,,,,799384,m,y,r,n,14,0,2025-04-05_15h35.03.235,VisualSearchFaces,2024.2.4,Win32,60.24096386,,,,,,,,908.0921,908.1898,908.1898,910.187,block2,j,1,0,18,18,1,1,1,top_left,neutral,friendly,0.4681,,,,,,,,,,,,,,,,,
,,,,,799384,m,y,r,n,14,0,2025-04-05_15h35.03.235,VisualSearchFaces,2024.2.4,Win32,60.24096386,,,,,,,,911.1916,911.2895,911.2896,913.2864,block2,j,1,0,19,19,2,1,1,top_right,neutral,friendly,0.531,,,,,,,,,,,,,,,,,
,,,,,799384,m,y,r,n,14,0,2025-04-05_15h35.03.235,VisualSearchFaces,2024.2.4,Win32,60.24096386,,,,,,,,914.291,914.3893,914.3894,916.3858,block2,f,1,0,20,20,26,1,0,top_left,neutral,no_target,0.5306,,,,,,,,,,,,,,,,,
,,,,,799384,m,y,r,n,14,0,2025-04-05_15h35.03.235,VisualSearchFaces,2024.2.4,Win32,60.24096386,,,,,,,,917.391,917.4993,917.4994,919.5025,block2,j,1,0,21,21,19,1,1,bottom_right,threatening,neutral,0.5892,,,,,,,,,,,,,,,,,
,,,,,799384,m,y,r,n,14,0,2025-04-05_15h35.03.235,VisualSearchFaces,2024.2.4,Win32,60.24096386,,,,,,,,920.5066,920.6096,920.6096,922.6019,block2,,0,0,22,22,38,1,0,bottom_left,threatening,no_target,,,,,,,,,,,,,,,,,,
,,,,,799384,m,y,r,n,14,0,2025-04-05_15h35.03.235,VisualSearchFaces,2024.2.4,Win32,60.24096386,,,,,,,,923.6063,923.706,923.7061,925.7015,block2,j,1,0,23,23,17,1,1,top_right,threatening,neutral,0.6794,,,,,,,,,,,,,,,,,
,,,,,799384,m,y,r,n,14,0,2025-04-05_15h35.03.235,VisualSearchFaces,2024.2.4,Win32,60.24096386,,,,,,,,926.706,926.8042,926.8042,928.8012,block2,j,1,0,24,24,18,1,1,bottom_left,threatening,neutral,0.5976,,,,,,,,,,,,,,,,,
,,,,,799384,m,y,r,n,14,0,2025-04-05_15h35.03.235,VisualSearchFaces,2024.2.4,Win32,60.24096386,,,,,,,,929.8057,929.9145,929.9145,931.9177,block2,f,1,0,25,25,33,1,0,bottom_left,friendly,no_target,0.8893,,,,,,,,,,,,,,,,,
,,,,,799384,m,y,r,n,14,0,2025-04-05_15h35.03.235,VisualSearchFaces,2024.2.4,Win32,60.24096386,,,,,,,,932.921,933.0222,933.0222,935.0172,block2,j,1,0,26,26,3,1,1,bottom_left,neutral,friendly,0.5953,,,,,,,,,,,,,,,,,
,,,,,799384,m,y,r,n,14,0,2025-04-05_15h35.03.235,VisualSearchFaces,2024.2.4,Win32,60.24096386,,,,,,,,936.0213,936.1225,936.1225,938.1166,block2,f,1,0,27,27,36,1,0,top_left,threatening,no_target,0.8449,,,,,,,,,,,,,,,,,
,,,,,799384,m,y,r,n,14,0,2025-04-05_15h35.03.235,VisualSearchFaces,2024.2.4,Win32,60.24096386,,,,,,,,939.1206,939.2245,939.2245,941.2165,block2,j,1,0,28,28,10,1,1,centre,friendly,neutral,0.6041,,,,,,,,,,,,,,,,,
,,,,,799384,m,y,r,n,14,0,2025-04-05_15h35.03.235,VisualSearchFaces,2024.2.4,Win32,60.24096386,,,,,,,,942.2206,942.3189,942.319,944.3161,block2,f,1,0,29,29,37,1,0,top_right,threatening,no_target,1.0017,,,,,,,,,,,,,,,,,
,,,,,799384,m,y,r,n,14,0,2025-04-05_15h35.03.235,VisualSearchFaces,2024.2.4,Win32,60.24096386,,,,,,,,945.3212,945.4249,945.425,947.4158,block2,j,1,0,30,30,5,1,1,centre,neutral,threatening,0.5559,,,,,,,,,,,,,,,,,
,,,,,799384,m,y,r,n,14,0,2025-04-05_15h35.03.235,VisualSearchFaces,2024.2.4,Win32,60.24096386,,,,,,,,948.4186,948.5156,948.5156,950.5153,block2,j,1,0,31,31,12,1,1,top_right,friendly,neutral,0.4333,,,,,,,,,,,,,,,,,
,,,,,799384,m,y,r,n,14,0,2025-04-05_15h35.03.235,VisualSearchFaces,2024.2.4,Win32,60.24096386,,,,,,,,951.5198,951.6181,951.6183,953.6149,block2,f,1,0,32,32,34,1,0,bottom_right,friendly,no_target,0.5652,,,,,,,,,,,,,,,,,
,,,,,799384,m,y,r,n,14,0,2025-04-05_15h35.03.235,VisualSearchFaces,2024.2.4,Win32,60.24096386,,,,,,,,954.6193,954.7313,954.7314,956.7308,block2,f,1,0,33,33,20,1,0,centre,neutral,no_target,0.5357,,,,,,,,,,,,,,,,,
,,,,,799384,m,y,r,n,14,0,2025-04-05_15h35.03.235,VisualSearchFaces,2024.2.4,Win32,60.24096386,,,,,,,,957.7334,957.8372,957.8372,959.8308,block2,f,1,0,34,34,30,1,0,centre,friendly,no_target,0.6273,,,,,,,,,,,,,,,,,
,,,,,799384,m,y,r,n,14,0,2025-04-05_15h35.03.235,VisualSearchFaces,2024.2.4,Win32,60.24096386,,,,,,,,960.8353,960.9471,960.9472,962.9472,block2,f,1,0,35,35,28,1,0,bottom_left,neutral,no_target,0.6336,,,,,,,,,,,,,,,,,
,,,,,799384,m,y,r,n,14,0,2025-04-05_15h35.03.235,VisualSearchFaces,2024.2.4,Win32,60.24096386,,,,,,,,963.9515,964.056,964.056,966.0467,block2,j,1,0,36,36,15,1,1,centre,threatening,neutral,0.4747,,,,,,,,,,,,,,,,,
,,,,,799384,m,y,r,n,14,0,2025-04-05_15h35.03.235,VisualSearchFaces,2024.2.4,Win32,60.24096386,,,,,,,,967.0509,967.155,967.155,969.1464,block2,j,1,0,37,37,7,1,1,top_right,neutral,threatening,0.6904,,,,,,,,,,,,,,,,,
,,,,,799384,m,y,r,n,14,0,2025-04-05_15h35.03.235,VisualSearchFaces,2024.2.4,Win32,60.24096386,,,,,,,,970.1508,970.2508,970.2508,972.2459,block2,f,1,0,38,38,39,1,0,bottom_right,threatening,no_target,0.7965,,,,,,,,,,,,,,,,,
,,,,,799384,m,y,r,n,14,0,2025-04-05_15h35.03.235,VisualSearchFaces,2024.2.4,Win32,60.24096386,,,,,,,,973.2505,973.3494,973.3495,975.3457,block2,j,1,0,39,39,4,1,1,bottom_right,neutral,friendly,0.6969,,,,,,,,,,,,,,,,,
,,,,,799384,m,y,r,n,14,0,2025-04-05_15h35.03.235,VisualSearchFaces,2024.2.4,Win32,60.24096386,,,,,,,,976.352,976.4622,976.4622,978.4619,block2,f,1,1,0,40,26,1,0,top_left,neutral,no_target,0.7167,,,,,,,,,,,,,,,,,
,,,,,799384,m,y,r,n,14,0,2025-04-05_15h35.03.235,VisualSearchFaces,2024.2.4,Win32,60.24096386,,,,,,,,979.4662,979.5765,979.5765,981.5756,block2,f,1,1,1,41,21,1,0,top_left,neutral,no_target,0.6005,,,,,,,,,,,,,,,,,
,,,,,799384,m,y,r,n,14,0,2025-04-05_15h35.03.235,VisualSearchFaces,2024.2.4,Win32,60.24096386,,,,,,,,982.5802,982.6842,982.6842,984.6778,block2,j,1,1,2,42,3,1,1,bottom_left,neutral,friendly,0.5779,,,,,,,,,,,,,,,,,
,,,,,799384,m,y,r,n,14,0,2025-04-05_15h35.03.235,VisualSearchFaces,2024.2.4,Win32,60.24096386,,,,,,,,985.6814,985.7941,985.7942,987.794,block2,j,1,1,3,43,14,1,1,bottom_right,friendly,neutral,0.5009,,,,,,,,,,,,,,,,,
,,,,,799384,m,y,r,n,14,0,2025-04-05_15h35.03.235,VisualSearchFaces,2024.2.4,Win32,60.24096386,,,,,,,,988.7989,988.8963,988.8964,990.8954,block2,j,1,1,4,44,16,1,1,top_left,threatening,neutral,0.5836,,,,,,,,,,,,,,,,,
,,,,,799384,m,y,r,n,14,0,2025-04-05_15h35.03.235,VisualSearchFaces,2024.2.4,Win32,60.24096386,,,,,,,,991.8981,992.0082,992.0082,994.0103,block2,f,1,1,5,45,31,1,0,top_left,friendly,no_target,0.8176,,,,,,,,,,,,,,,,,
,,,,,799384,m,y,r,n,14,0,2025-04-05_15h35.03.235,VisualSearchFaces,2024.2.4,Win32,60.24096386,,,,,,,,995.0148,995.1263,995.1263,997.1263,block2,f,1,1,6,46,36,1,0,top_left,threatening,no_target,0.7175,,,,,,,,,,,,,,,,,
,,,,,799384,m,y,r,n,14,0,2025-04-05_15h35.03.235,VisualSearchFaces,2024.2.4,Win32,60.24096386,,,,,,,,998.1291,998.2426,998.2427,1000.2424,block2,j,1,1,7,47,6,1,1,top_left,neutral,threatening,0.5009,,,,,,,,,,,,,,,,,
,,,,,799384,m,y,r,n,14,0,2025-04-05_15h35.03.235,VisualSearchFaces,2024.2.4,Win32,60.24096386,,,,,,,,1001.2464,1001.3594,1001.3595,1003.3562,block2,j,1,1,8,48,17,1,1,top_right,threatening,neutral,0.4831,,,,,,,,,,,,,,,,,
,,,,,799384,m,y,r,n,14,0,2025-04-05_15h35.03.235,VisualSearchFaces,2024.2.4,Win32,60.24096386,,,,,,,,1004.3609,1004.457,1004.457,1006.4585,block2,j,1,1,9,49,19,1,1,bottom_right,threatening,neutral,0.5174,,,,,,,,,,,,,,,,,
,,,,,799384,m,y,r,n,14,0,2025-04-05_15h35.03.235,VisualSearchFaces,2024.2.4,Win32,60.24096386,,,,,,,,1007.4617,1007.564,1007.564,1009.5582,block2,f,1,1,10,50,29,1,0,bottom_right,neutral,no_target,0.5285,,,,,,,,,,,,,,,,,
,,,,,799384,m,y,r,n,14,0,2025-04-05_15h35.03.235,VisualSearchFaces,2024.2.4,Win32,60.24096386,,,,,,,,1010.5628,1010.6724,1010.6724,1012.6746,block2,f,1,1,11,51,39,1,0,bottom_right,threatening,no_target,0.6216,,,,,,,,,,,,,,,,,
,,,,,799384,m,y,r,n,14,0,2025-04-05_15h35.03.235,VisualSearchFaces,2024.2.4,Win32,60.24096386,,,,,,,,1013.6787,1013.7907,1013.7907,1015.7909,block2,f,1,1,12,52,22,1,0,top_right,neutral,no_target,0.6017,,,,,,,,,,,,,,,,,
,,,,,799384,m,y,r,n,14,0,2025-04-05_15h35.03.235,VisualSearchFaces,2024.2.4,Win32,60.24096386,,,,,,,,1016.7926,1016.8981,1016.8982,1018.8898,block2,j,1,1,13,53,12,1,1,top_right,friendly,neutral,0.4925,,,,,,,,,,,,,,,,,
,,,,,799384,m,y,r,n,14,0,2025-04-05_15h35.03.235,VisualSearchFaces,2024.2.4,Win32,60.24096386,,,,,,,,1019.8943,1020.0067,1020.0067,1022.0066,block2,j,1,1,14,54,5,1,1,centre,neutral,threatening,0.4671,,,,,,,,,,,,,,,,,
,,,,,799384,m,y,r,n,14,0,2025-04-05_15h35.03.235,VisualSearchFaces,2024.2.4,Win32,60.24096386,,,,,,,,1023.0114,1023.1133,1023.1133,1025.1062,block2,f,1,1,15,55,23,1,0,bottom_left,neutral,no_target,0.5436,,,,,,,,,,,,,,,,,
,,,,,799384,m,y,r,n,14,0,2025-04-05_15h35.03.235,VisualSearchFaces,2024.2.4,Win32,60.24096386,,,,,,,,1026.1081,1026.2173,1026.2173,1028.2057,block2,f,1,1,16,56,37,1,0,top_right,threatening,no_target,0.9888,,,,,,,,,,,,,,,,,
,,,,,799384,m,y,r,n,14,0,2025-04-05_15h35.03.235,VisualSearchFaces,2024.2.4,Win32,60.24096386,,,,,,,,1029.2109,1029.308,1029.3081,1031.3053,block2,j,1,1,17,57,9,1,1,bottom_right,neutral,threatening,0.6657,,,,,,,,,,,,,,,,,
,,,,,799384,m,y,r,n,14,0,2025-04-05_15h35.03.235,VisualSearchFaces,2024.2.4,Win32,60.24096386,,,,,,,,1032.3098,1032.4203,1032.4203,1034.4217,block2,f,1,1,18,58,20,1,0,centre,neutral,no_target,0.9005,,,,,,,,,,,,,,,,,
,,,,,799384,m,y,r,n,14,0,2025-04-05_15h35.03.235,VisualSearchFaces,2024.2.4,Win32,60.24096386,,,,,,,,1035.4261,1035.5359,1035.5359,1037.535,block2,f,1,1,19,59,33,1,0,bottom_left,friendly,no_target,0.6503,,,,,,,,,,,,,,,,,
,,,,,799384,m,y,r,n,14,0,2025-04-05_15h35.03.235,VisualSearchFaces,2024.2.4,Win32,60.24096386,,,,,,,,1038.5401,1038.646,1038.6461,1040.6375,block2,j,1,1,20,60,15,1,1,centre,threatening,neutral,0.7569,,,,,,,,,,,,,,,,,
,,,,,799384,m,y,r,n,14,0,2025-04-05_15h35.03.235,VisualSearchFaces,2024.2.4,Win32,60.24096386,,,,,,,,1041.6419,1041.7405,1041.7405,1043.7371,block2,f,1,1,21,61,35,1,0,centre,threatening,no_target,0.7643,,,,,,,,,,,,,,,,,
,,,,,799384,m,y,r,n,14,0,2025-04-05_15h35.03.235,VisualSearchFaces,2024.2.4,Win32,60.24096386,,,,,,,,1044.7413,1044.8416,1044.8416,1046.8367,block2,f,1,1,22,62,38,1,0,bottom_left,threatening,no_target,1.0117,,,,,,,,,,,,,,,,,
,,,,,799384,m,y,r,n,14,0,2025-04-05_15h35.03.235,VisualSearchFaces,2024.2.4,Win32,60.24096386,,,,,,,,1047.8413,1047.9373,1047.9374,1049.9363,block2,j,1,1,23,63,1,1,1,top_left,neutral,friendly,0.6848,,,,,,,,,,,,,,,,,
,,,,,799384,m,y,r,n,14,0,2025-04-05_15h35.03.235,VisualSearchFaces,2024.2.4,Win32,60.24096386,,,,,,,,1050.9409,1051.0511,1051.0512,1053.0525,block2,f,1,1,24,64,27,1,0,top_right,neutral,no_target,0.634,,,,,,,,,,,,,,,,,
,,,,,799384,m,y,r,n,14,0,2025-04-05_15h35.03.235,VisualSearchFaces,2024.2.4,Win32,60.24096386,,,,,,,,1054.0568,1054.1693,1054.1693,1056.169,block2,j,1,1,25,65,0,1,1,centre,neutral,friendly,0.5276,,,,,,,,,,,,,,,,,
,,,,,799384,m,y,r,n,14,0,2025-04-05_15h35.03.235,VisualSearchFaces,2024.2.4,Win32,60.24096386,,,,,,,,1057.1733,1057.2715,1057.2716,1059.2684,block2,j,1,1,26,66,2,1,1,top_right,neutral,friendly,0.7811,,,,,,,,,,,,,,,,,
,,,,,799384,m,y,r,n,14,0,2025-04-05_15h35.03.235,VisualSearchFaces,2024.2.4,Win32,60.24096386,,,,,,,,1060.2714,1060.3786,1060.3787,1062.368,block2,f,1,1,27,67,24,1,0,bottom_right,neutral,no_target,0.6404,,,,,,,,,,,,,,,,,
,,,,,799384,m,y,r,n,14,0,2025-04-05_15h35.03.235,VisualSearchFaces,2024.2.4,Win32,60.24096386,,,,,,,,1063.3725,1063.4711,1063.4711,1065.4679,block2,j,1,1,28,68,8,1,1,bottom_left,neutral,threatening,0.6172,,,,,,,,,,,,,,,,,
,,,,,799384,m,y,r,n,14,0,2025-04-05_15h35.03.235,VisualSearchFaces,2024.2.4,Win32,60.24096386,,,,,,,,1066.4715,1066.5692,1066.5693,1068.5674,block2,f,1,1,29,69,28,1,0,bottom_left,neutral,no_target,0.5015,,,,,,,,,,,,,,,,,
,,,,,799384,m,y,r,n,14,0,2025-04-05_15h35.03.235,VisualSearchFaces,2024.2.4,Win32,60.24096386,,,,,,,,1069.5723,1069.6817,1069.6818,1071.682,block2,j,1,1,30,70,11,1,1,top_left,friendly,neutral,0.6846,,,,,,,,,,,,,,,,,
,,,,,799384,m,y,r,n,14,0,2025-04-05_15h35.03.235,VisualSearchFaces,2024.2.4,Win32,60.24096386,,,,,,,,1072.6809,1072.7862,1072.7862,1074.7833,block2,j,1,1,31,71,4,1,1,bottom_right,neutral,friendly,0.8175,,,,,,,,,,,,,,,,,
,,,,,799384,m,y,r,n,14,0,2025-04-05_15h35.03.235,VisualSearchFaces,2024.2.4,Win32,60.24096386,,,,,,,,1075.788,1075.8995,1075.8996,1077.8997,block2,f,1,1,32,72,34,1,0,bottom_right,friendly,no_target,0.564,,,,,,,,,,,,,,,,,
,,,,,799384,m,y,r,n,14,0,2025-04-05_15h35.03.235,VisualSearchFaces,2024.2.4,Win32,60.24096386,,,,,,,,1078.9041,1079.0079,1079.0079,1080.9992,block2,f,1,1,33,73,32,1,0,top_right,friendly,no_target,0.625,,,,,,,,,,,,,,,,,
,,,,,799384,m,y,r,n,14,0,2025-04-05_15h35.03.235,VisualSearchFaces,2024.2.4,Win32,60.24096386,,,,,,,,1082.0035,1082.1141,1082.1141,1084.1151,block2,j,1,1,34,74,13,1,1,bottom_left,friendly,neutral,0.6839,,,,,,,,,,,,,,,,,
,,,,,799384,m,y,r,n,14,0,2025-04-05_15h35.03.235,VisualSearchFaces,2024.2.4,Win32,60.24096386,,,,,,,,1085.1181,1085.2322,1085.2322,1087.2318,block2,j,1,1,35,75,18,1,1,bottom_left,threatening,neutral,0.4826,,,,,,,,,,,,,,,,,
,,,,,799384,m,y,r,n,14,0,2025-04-05_15h35.03.235,VisualSearchFaces,2024.2.4,Win32,60.24096386,,,,,,,,1088.236,1088.3375,1088.3375,1090.3315,block2,j,1,1,36,76,7,1,1,top_right,neutral,threatening,0.9625,,,,,,,,,,,,,,,,,
,,,,,799384,m,y,r,n,14,0,2025-04-05_15h35.03.235,VisualSearchFaces,2024.2.4,Win32,60.24096386,,,,,,,,1091.336,1091.4362,1091.4362,1093.4309,block2,f,1,1,37,77,30,1,0,centre,friendly,no_target,0.8118,,,,,,,,,,,,,,,,,
,,,,,799384,m,y,r,n,14,0,2025-04-05_15h35.03.235,VisualSearchFaces,2024.2.4,Win32,60.24096386,,,,,,,,1094.4358,1094.5346,1094.5347,1096.5306,block2,j,1,1,38,78,10,1,1,centre,friendly,neutral,0.5133,,,,,,,,,,,,,,,,,
,,,,,799384,m,y,r,n,14,0,2025-04-05_15h35.03.235,VisualSearchFaces,2024.2.4,Win32,60.24096386,,,,,,,,1097.5352,1097.6468,1097.6469,1099.647,block2,f,1,1,39,79,25,1,0,centre,neutral,no_target,0.5865,,,,,,,,,,,,,,,,,
,,,,,799384,m,y,r,n,14,0,2025-04-05_15h35.03.235,VisualSearchFaces,2024.2.4,Win32,60.24096386,,,1113.4857,1259.3609,space,145.8391,,1260.365,1260.4772,1260.4772,1262.4771,block3,j,1,0,0,0,15,1,1,centre,threatening,neutral,0.7012,,1099.6507,1113.479,space,13.7939,,,,,,,,,,,,
,,,,,799384,m,y,r,n,14,0,2025-04-05_15h35.03.235,VisualSearchFaces,2024.2.4,Win32,60.24096386,,,,,,,,1263.4815,1263.5852,1263.5853,1265.5764,block3,f,1,0,1,1,32,1,0,top_right,friendly,no_target,0.557,,,,,,,,,,,,,,,,,
,,,,,799384,m,y,r,n,14,0,2025-04-05_15h35.03.235,VisualSearchFaces,2024.2.4,Win32,60.24096386,,,,,,,,1266.5793,1266.6926,1266.6926,1268.6928,block3,j,1,0,2,2,2,1,1,top_right,neutral,friendly,0.4856,,,,,,,,,,,,,,,,,
,,,,,799384,m,y,r,n,14,0,2025-04-05_15h35.03.235,VisualSearchFaces,2024.2.4,Win32,60.24096386,,,,,,,,1269.696,1269.7945,1269.7945,1271.7923,block3,f,1,0,3,3,33,1,0,bottom_left,friendly,no_target,0.5158,,,,,,,,,,,,,,,,,
,,,,,799384,m,y,r,n,14,0,2025-04-05_15h35.03.235,VisualSearchFaces,2024.2.4,Win32,60.24096386,,,,,,,,1272.7964,1272.909,1272.9091,1274.9086,block3,j,1,0,4,4,4,1,1,bottom_right,neutral,friendly,0.5675,,,,,,,,,,,,,,,,,
,,,,,799384,m,y,r,n,14,0,2025-04-05_15h35.03.235,VisualSearchFaces,2024.2.4,Win32,60.24096386,,,,,,,,1275.905,1276.0084,1276.0084,1278.0081,block3,f,1,0,5,5,29,1,0,bottom_right,neutral,no_target,0.4513,,,,,,,,,,,,,,,,,
,,,,,799384,m,y,r,n,14,0,2025-04-05_15h35.03.235,VisualSearchFaces,2024.2.4,Win32,60.24096386,,,,,,,,1279.0111,1279.1144,1279.1144,1281.1079,block3,f,1,0,6,6,22,1,0,top_right,neutral,no_target,0.3921,,,,,,,,,,,,,,,,,
,,,,,799384,m,y,r,n,14,0,2025-04-05_15h35.03.235,VisualSearchFaces,2024.2.4,Win32,60.24096386,,,,,,,,1282.1114,1282.2086,1282.2087,1284.2077,block3,j,1,0,7,7,6,1,1,top_left,neutral,threatening,0.4824,,,,,,,,,,,,,,,,,
,,,,,799384,m,y,r,n,14,0,2025-04-05_15h35.03.235,VisualSearchFaces,2024.2.4,Win32,60.24096386,,,,,,,,1285.2106,1285.3096,1285.3097,1287.3071,block3,j,1,0,8,8,0,1,1,centre,neutral,friendly,1.2312,,,,,,,,,,,,,,,,,
,,,,,799384,m,y,r,n,14,0,2025-04-05_15h35.03.235,VisualSearchFaces,2024.2.4,Win32,60.24096386,,,,,,,,1288.3102,1288.4072,1288.4073,1290.4068,block3,f,1,0,9,9,23,1,0,bottom_left,neutral,no_target,0.45,,,,,,,,,,,,,,,,,
,,,,,799384,m,y,r,n,14,0,2025-04-05_15h35.03.235,VisualSearchFaces,2024.2.4,Win32,60.24096386,,,,,,,,1291.4113,1291.513,1291.5131,1293.5064,block3,f,1,0,10,10,34,1,0,bottom_right,friendly,no_target,1.3109,,,,,,,,,,,,,,,,,
,,,,,799384,m,y,r,n,14,0,2025-04-05_15h35.03.235,VisualSearchFaces,2024.2.4,Win32,60.24096386,,,,,,,,1294.5091,1294.623,1294.6231,1296.6228,block3,j,1,0,11,11,11,1,1,top_left,friendly,neutral,0.4339,,,,,,,,,,,,,,,,,
,,,,,799384,m,y,r,n,14,0,2025-04-05_15h35.03.235,VisualSearchFaces,2024.2.4,Win32,60.24096386,,,,,,,,1297.6254,1297.7382,1297.7383,1299.7351,block3,j,1,0,12,12,16,1,1,top_left,threatening,neutral,0.5978,,,,,,,,,,,,,,,,,
,,,,,799384,m,y,r,n,14,0,2025-04-05_15h35.03.235,VisualSearchFaces,2024.2.4,Win32,60.24096386,,,,,,,,1300.7369,1300.8358,1300.8358,1302.8346,block3,j,1,0,13,13,18,1,1,bottom_left,threatening,neutral,1.0001,,,,,,,,,,,,,,,,,
,,,,,799384,m,y,r,n,14,0,2025-04-05_15h35.03.235,VisualSearchFaces,2024.2.4,Win32,60.24096386,,,,,,,,1303.8416,1303.9547,1303.9547,1305.9547,block3,j,1,0,14,14,8,1,1,bottom_left,neutral,threatening,0.6512,,,,,,,,,,,,,,,,,
,,,,,799384,m,y,r,n,14,0,2025-04-05_15h35.03.235,VisualSearchFaces,2024.2.4,Win32,60.24096386,,,,,,,,1306.9577,1307.0715,1307.0715,1309.0712,block3,f,1,0,15,15,39,1,0,bottom_right,threatening,no_target,0.5672,,,,,,,,,,,,,,,,,
,,,,,799384,m,y,r,n,14,0,2025-04-05_15h35.03.235,VisualSearchFaces,2024.2.4,Win32,60.24096386,,,,,,,,1310.0748,1310.1719,1310.1719,1312.171,block3,f,1,0,16,16,27,1,0,top_right,neutral,no_target,0.5171,,,,,,,,,,,,,,,,,
,,,,,799384,m,y,r,n,14,0,2025-04-05_15h35.03.235,VisualSearchFaces,2024.2.4,Win32,60.24096386,,,,,,,,1313.174,1313.2874,1313.2874,1315.2872,block3,j,1,0,17,17,19,1,1,bottom_right,threatening,neutral,0.5318,,,,,,,,,,,,,,,,,
,,,,,799384,m,y,r,n,14,0,2025-04-05_15h35.03.235,VisualSearchFaces,2024.2.4,Win32,60.24096386,,,,,,,,1316.2915,1316.3872,1316.3872,1318.3868,block3,f,1,0,18,18,28,1,0,bottom_left,neutral,no_target,0.7681,,,,,,,,,,,,,,,,,
,,,,,799384,m,y,r,n,14,0,2025-04-05_15h35.03.235,VisualSearchFaces,2024.2.4,Win32,60.24096386,,,,,,,,1319.3909,1319.4943,1319.4943,1321.4864,block3,f,1,0,19,19,31,1,0,top_left,friendly,no_target,0.8594,,,,,,,,,,,,,,,,,
,,,,,799384,m,y,r,n,14,0,2025-04-05_15h35.03.235,VisualSearchFaces,2024.2.4,Win32,60.24096386,,,,,,,,1322.4907,1322.5892,1322.5892,1324.586,block3,f,1,0,20,20,21,1,0,top_left,neutral,no_target,0.6149,,,,,,,,,,,,,,,,,
,,,,,799384,m,y,r,n,14,0,2025-04-05_15h35.03.235,VisualSearchFaces,2024.2.4,Win32,60.24096386,,,,,,,,1325.5878,1325.692,1325.692,1327.6857,block3,f,1,0,21,21,30,1,0,centre,friendly,no_target,0.6277,,,,,,,,,,,,,,,,,
,,,,,799384,m,y,r,n,14,0,2025-04-05_15h35.03.235,VisualSearchFaces,2024.2.4,Win32,60.24096386,,,,,,,,1328.6903,1328.8018,1328.8018,1330.8019,block3,f,1,0,22,22,20,1,0,centre,neutral,no_target,0.5853,,,,,,,,,,,,,,,,,
,,,,,799384,m,y,r,n,14,0,2025-04-05_15h35.03.235,VisualSearchFaces,2024.2.4,Win32,60.24096386,,,,,,,,1331.8062,1331.9048,1331.9049,1333.9015,block3,j,1,0,23,23,14,1,1,bottom_right,friendly,neutral,0.4327,,,,,,,,,,,,,,,,,
,,,,,799384,m,y,r,n,14,0,2025-04-05_15h35.03.235,VisualSearchFaces,2024.2.4,Win32,60.24096386,,,,,,,,1334.9057,1335.0179,1335.018,1337.0178,block3,f,1,0,24,24,25,1,0,centre,neutral,no_target,0.5007,,,,,,,,,,,,,,,,,
,,,,,799384,m,y,r,n,14,0,2025-04-05_15h35.03.235,VisualSearchFaces,2024.2.4,Win32,60.24096386,,,,,,,,1338.0227,1338.1325,1338.1327,1340.1314,block3,j,1,0,25,25,9,1,1,bottom_right,neutral,threatening,0.384,,,,,,,,,,,,,,,,,
,,,,,799384,m,y,r,n,14,0,2025-04-05_15h35.03.235,VisualSearchFaces,2024.2.4,Win32,60.24096386,,,,,,,,1341.1384,1341.2393,1341.2393,1343.2336,block3,f,1,0,26,26,38,1,0,bottom_left,threatening,no_target,0.5286,,,,,,,,,,,,,,,,,
,,,,,799384,m,y,r,n,14,0,2025-04-05_15h35.03.235,VisualSearchFaces,2024.2.4,Win32,60.24096386,,,,,,,,1344.2381,1344.3394,1344.3395,1346.3334,block3,j,1,0,27,27,12,1,1,top_right,friendly,neutral,0.1604,,,,,,,,,,,,,,,,,
,,,,,799384,m,y,r,n,14,0,2025-04-05_15h35.03.235,VisualSearchFaces,2024.2.4,Win32,60.24096386,,,,,,,,1347.3379,1347.448,1347.4481,1349.4495,block3,j,1,0,28,28,13,1,1,bottom_left,friendly,neutral,0.4504,,,,,,,,,,,,,,,,,
,,,,,799384,m,y,r,n,14,0,2025-04-05_15h35.03.235,VisualSearchFaces,2024.2.4,Win32,60.24096386,,,,,,,,1350.4538,1350.566,1350.5661,1352.5658,block3,j,1,0,29,29,1,1,1,top_left,neutral,friendly,0.4678,,,,,,,,,,,,,,,,,
,,,,,799384,m,y,r,n,14,0,2025-04-05_15h35.03.235,VisualSearchFaces,2024.2.4,Win32,60.24096386,,,,,,,,1353.5703,1353.6691,1353.6691,1355.6656,block3,j,1,0,30,30,7,1,1,top_right,neutral,threatening,0.3638,,,,,,,,,,,,,,,,,
,,,,,799384,m,y,r,n,14,0,2025-04-05_15h35.03.235,VisualSearchFaces,2024.2.4,Win32,60.24096386,,,,,,,,1356.6699,1356.7714,1356.7715,1358.765,block3,j,1,0,31,31,17,1,1,top_right,threatening,neutral,0.5279,,,,,,,,,,,,,,,,,
,,,,,799384,m,y,r,n,14,0,2025-04-05_15h35.03.235,VisualSearchFaces,2024.2.4,Win32,60.24096386,,,,,,,,1359.7713,1359.8814,1359.8815,1361.8814,block3,j,1,0,32,32,5,1,1,centre,neutral,threatening,0.6009,,,,,,,,,,,,,,,,,
,,,,,799384,m,y,r,n,14,0,2025-04-05_15h35.03.235,VisualSearchFaces,2024.2.4,Win32,60.24096386,,,,,,,,1362.8852,1362.9911,1362.9911,1364.9811,block3,j,0,0,33,33,35,1,0,centre,threatening,no_target,0.6067,,,,,,,,,,,,,,,,,
,,,,,799384,m,y,r,n,14,0,2025-04-05_15h35.03.235,VisualSearchFaces,2024.2.4,Win32,60.24096386,,,,,,,,1365.9854,1366.0971,1366.0972,1368.0974,block3,j,1,0,34,34,3,1,1,bottom_left,neutral,friendly,0.65,,,,,,,,,,,,,,,,,
,,,,,799384,m,y,r,n,14,0,2025-04-05_15h35.03.235,VisualSearchFaces,2024.2.4,Win32,60.24096386,,,,,,,,1369.1017,1369.2043,1369.2043,1371.1969,block3,j,1,0,35,35,10,1,1,centre,friendly,neutral,0.8608,,,,,,,,,,,,,,,,,
,,,,,799384,m,y,r,n,14,0,2025-04-05_15h35.03.235,VisualSearchFaces,2024.2.4,Win32,60.24096386,,,,,,,,1372.201,1372.3054,1372.3054,1374.2966,block3,f,1,0,36,36,26,1,0,top_left,neutral,no_target,0.5223,,,,,,,,,,,,,,,,,
,,,,,799384,m,y,r,n,14,0,2025-04-05_15h35.03.235,VisualSearchFaces,2024.2.4,Win32,60.24096386,,,,,,,,1375.3012,1375.3992,1375.3992,1377.3961,block3,f,1,0,37,37,24,1,0,bottom_right,neutral,no_target,0.5465,,,,,,,,,,,,,,,,,
,,,,,799384,m,y,r,n,14,0,2025-04-05_15h35.03.235,VisualSearchFaces,2024.2.4,Win32,60.24096386,,,,,,,,1378.4006,1378.5047,1378.5048,1380.4933,block3,f,1,0,38,38,37,1,0,top_right,threatening,no_target,0.6251,,,,,,,,,,,,,,,,,
,,,,,799384,m,y,r,n,14,0,2025-04-05_15h35.03.235,VisualSearchFaces,2024.2.4,Win32,60.24096386,,,,,,,,1381.5001,1381.6018,1381.6019,1383.5954,block3,f,1,0,39,39,36,1,0,top_left,threatening,no_target,0.5944,,,,,,,,,,,,,,,,,
,,,,,799384,m,y,r,n,14,0,2025-04-05_15h35.03.235,VisualSearchFaces,2024.2.4,Win32,60.24096386,,,,,,,,1384.5998,1384.6979,1384.698,1386.6951,block3,f,1,1,0,40,39,1,0,bottom_right,threatening,no_target,0.6472,,,,,,,,,,,,,,,,,
,,,,,799384,m,y,r,n,14,0,2025-04-05_15h35.03.235,VisualSearchFaces,2024.2.4,Win32,60.24096386,,,,,,,,1387.6996,1387.8115,1387.8116,1389.8114,block3,j,1,1,1,41,12,1,1,top_right,friendly,neutral,0.5014,,,,,,,,,,,,,,,,,
,,,,,799384,m,y,r,n,14,0,2025-04-05_15h35.03.235,VisualSearchFaces,2024.2.4,Win32,60.24096386,,,,,,,,1390.8155,1390.9278,1390.9279,1392.9277,block3,f,1,1,2,42,23,1,0,bottom_left,neutral,no_target,0.5842,,,,,,,,,,,,,,,,,
,,,,,799384,m,y,r,n,14,0,2025-04-05_15h35.03.235,VisualSearchFaces,2024.2.4,Win32,60.24096386,,,,,,,,1393.9319,1394.0369,1394.0369,1396.0271,block3,f,1,1,3,43,32,1,0,top_right,friendly,no_target,0.8582,,,,,,,,,,,,,,,,,
,,,,,799384,m,y,r,n,14,0,2025-04-05_15h35.03.235,VisualSearchFaces,2024.2.4,Win32,60.24096386,,,,,,,,1397.0313,1397.1294,1397.1294,1399.1268,block3,f,1,1,4,44,35,1,0,centre,threatening,no_target,0.9161,,,,,,,,,,,,,,,,,
,,,,,799384,m,y,r,n,14,0,2025-04-05_15h35.03.235,VisualSearchFaces,2024.2.4,Win32,60.24096386,,,,,,,,1400.1311,1400.2329,1400.233,1402.2264,block3,f,1,1,5,45,36,1,0,top_left,threatening,no_target,0.5609,,,,,,,,,,,,,,,,,
,,,,,799384,m,y,r,n,14,0,2025-04-05_15h35.03.235,VisualSearchFaces,2024.2.4,Win32,60.24096386,,,,,,,,1403.2298,1403.327,1403.327,1405.3259,block3,j,1,1,6,46,10,1,1,centre,friendly,neutral,0.4999,,,,,,,,,,,,,,,,,
,,,,,799384,m,y,r,n,14,0,2025-04-05_15h35.03.235,VisualSearchFaces,2024.2.4,Win32,60.24096386,,,,,,,,1406.3299,1406.427,1406.4271,1408.4258,block3,j,1,1,7,47,15,1,1,centre,threatening,neutral,0.7331,,,,,,,,,,,,,,,,,
,,,,,799384,m,y,r,n,14,0,2025-04-05_15h35.03.235,VisualSearchFaces,2024.2.4,Win32,60.24096386,,,,,,,,1409.4301,1409.5406,1409.5406,1411.5393,block3,f,1,1,8,48,22,1,0,top_right,neutral,no_target,0.617,,,,,,,,,,,,,,,,,
,,,,,799384,m,y,r,n,14,0,2025-04-05_15h35.03.235,VisualSearchFaces,2024.2.4,Win32,60.24096386,,,,,,,,1412.5443,1412.6467,1412.6467,1414.6416,block3,j,1,1,9,49,18,1,1,bottom_left,threatening,neutral,0.4786,,,,,,,,,,,,,,,,,
,,,,,799384,m,y,r,n,14,0,2025-04-05_15h35.03.235,VisualSearchFaces,2024.2.4,Win32,60.24096386,,,,,,,,1415.6458,1415.7521,1415.7521,1417.7412,block3,j,1,1,10,50,6,1,1,top_left,neutral,threatening,0.4229,,,,,,,,,,,,,,,,,
,,,,,799384,m,y,r,n,14,0,2025-04-05_15h35.03.235,VisualSearchFaces,2024.2.4,Win32,60.24096386,,,,,,,,1418.7455,1418.8579,1418.8579,1420.8574,block3,f,1,1,11,51,27,1,0,top_right,neutral,no_target,0.6001,,,,,,,,,,,,,,,,,
,,,,,799384,m,y,r,n,14,0,2025-04-05_15h35.03.235,VisualSearchFaces,2024.2.4,Win32,60.24096386,,,,,,,,1421.861,1421.9637,1421.9637,1423.957,block3,j,1,1,12,52,17,1,1,top_right,threatening,neutral,0.5604,,,,,,,,,,,,,,,,,
,,,,,799384,m,y,r,n,14,0,2025-04-05_15h35.03.235,VisualSearchFaces,2024.2.4,Win32,60.24096386,,,,,,,,1424.9625,1425.0643,1425.0644,1427.0568,block3,j,1,1,13,53,7,1,1,top_right,neutral,threatening,0.5764,,,,,,,,,,,,,,,,,
,,,,,799384,m,y,r,n,14,0,2025-04-05_15h35.03.235,VisualSearchFaces,2024.2.4,Win32,60.24096386,,,,,,,,1428.0612,1428.1709,1428.1709,1430.1729,block3,j,1,1,14,54,0,1,1,centre,neutral,friendly,0.5191,,,,,,,,,,,,,,,,,
,,,,,799384,m,y,r,n,14,0,2025-04-05_15h35.03.235,VisualSearchFaces,2024.2.4,Win32,60.24096386,,,,,,,,1431.1773,1431.276,1431.276,1433.2726,block3,f,1,1,15,55,20,1,0,centre,neutral,no_target,0.4978,,,,,,,,,,,,,,,,,
,,,,,799384,m,y,r,n,14,0,2025-04-05_15h35.03.235,VisualSearchFaces,2024.2.4,Win32,60.24096386,,,,,,,,1434.2774,1434.3811,1434.3812,1436.372,block3,f,1,1,16,56,33,1,0,bottom_left,friendly,no_target,0.5274,,,,,,,,,,,,,,,,,
,,,,,799384,m,y,r,n,14,0,2025-04-05_15h35.03.235,VisualSearchFaces,2024.2.4,Win32,60.24096386,,,,,,,,1437.3762,1437.4818,1437.4818,1439.4718,block3,j,1,1,17,57,2,1,1,top_right,neutral,friendly,0.5075,,,,,,,,,,,,,,,,,
,,,,,799384,m,y,r,n,14,0,2025-04-05_15h35.03.235,VisualSearchFaces,2024.2.4,Win32,60.24096386,,,,,,,,1440.4766,1440.5881,1440.5881,1442.5882,block3,f,1,1,18,58,37,1,0,top_right,threatening,no_target,0.7521,,,,,,,,,,,,,,,,,
,,,,,799384,m,y,r,n,14,0,2025-04-05_15h35.03.235,VisualSearchFaces,2024.2.4,Win32,60.24096386,,,,,,,,1443.5924,1443.7045,1443.7047,1445.7045,block3,f,1,1,19,59,24,1,0,bottom_right,neutral,no_target,0.7169,,,,,,,,,,,,,,,,,
,,,,,799384,m,y,r,n,14,0,2025-04-05_15h35.03.235,VisualSearchFaces,2024.2.4,Win32,60.24096386,,,,,,,,1446.7091,1446.8074,1446.8074,1448.8043,block3,f,1,1,20,60,31,1,0,top_left,friendly,no_target,0.6969,,,,,,,,,,,,,,,,,
,,,,,799384,m,y,r,n,14,0,2025-04-05_15h35.03.235,VisualSearchFaces,2024.2.4,Win32,60.24096386,,,,,,,,1449.8091,1449.9042,1449.9042,1451.9037,block3,j,1,1,21,61,16,1,1,top_left,threatening,neutral,0.5328,,,,,,,,,,,,,,,,,
,,,,,799384,m,y,r,n,14,0,2025-04-05_15h35.03.235,VisualSearchFaces,2024.2.4,Win32,60.24096386,,,,,,,,1452.908,1453.0178,1453.0179,1455.02,block3,j,1,1,22,62,13,1,1,bottom_left,friendly,neutral,0.6002,,,,,,,,,,,,,,,,,
,,,,,799384,m,y,r,n,14,0,2025-04-05_15h35.03.235,VisualSearchFaces,2024.2.4,Win32,60.24096386,,,,,,,,1456.0244,1456.1361,1456.1362,1458.1363,block3,j,1,1,23,63,3,1,1,bottom_left,neutral,friendly,0.5503,,,,,,,,,,,,,,,,,
,,,,,799384,m,y,r,n,14,0,2025-04-05_15h35.03.235,VisualSearchFaces,2024.2.4,Win32,60.24096386,,,,,,,,1459.1406,1459.2509,1459.251,1461.2525,block3,j,1,1,24,64,8,1,1,bottom_left,neutral,threatening,0.434,,,,,,,,,,,,,,,,,
,,,,,799384,m,y,r,n,14,0,2025-04-05_15h35.03.235,VisualSearchFaces,2024.2.4,Win32,60.24096386,,,,,,,,1462.2567,1462.3675,1462.3675,1464.3662,block3,f,1,1,25,65,29,1,0,bottom_right,neutral,no_target,0.4506,,,,,,,,,,,,,,,,,
,,,,,799384,m,y,r,n,14,0,2025-04-05_15h35.03.235,VisualSearchFaces,2024.2.4,Win32,60.24096386,,,,,,,,1465.3715,1465.4743,1465.4743,1467.4685,block3,j,1,1,26,66,14,1,1,bottom_right,friendly,neutral,0.5277,,,,,,,,,,,,,,,,,
,,,,,799384,m,y,r,n,14,0,2025-04-05_15h35.03.235,VisualSearchFaces,2024.2.4,Win32,60.24096386,,,,,,,,1468.4728,1468.5848,1468.5849,1470.5847,block3,f,1,1,27,67,26,1,0,top_left,neutral,no_target,0.5817,,,,,,,,,,,,,,,,,
,,,,,799384,m,y,r,n,14,0,2025-04-05_15h35.03.235,VisualSearchFaces,2024.2.4,Win32,60.24096386,,,,,,,,1471.5891,1471.6944,1471.6945,1473.6844,block3,j,1,1,28,68,19,1,1,bottom_right,threatening,neutral,0.5903,,,,,,,,,,,,,,,,,
,,,,,799384,m,y,r,n,14,0,2025-04-05_15h35.03.235,VisualSearchFaces,2024.2.4,Win32,60.24096386,,,,,,,,1474.6888,1474.7987,1474.7988,1476.8006,block3,f,1,1,29,69,34,1,0,bottom_right,friendly,no_target,0.6849,,,,,,,,,,,,,,,,,
,,,,,799384,m,y,r,n,14,0,2025-04-05_15h35.03.235,VisualSearchFaces,2024.2.4,Win32,60.24096386,,,,,,,,1477.7912,1477.9003,1477.9003,1479.8999,block3,j,1,1,30,70,9,1,1,bottom_right,neutral,threatening,0.4831,,,,,,,,,,,,,,,,,
,,,,,799384,m,y,r,n,14,0,2025-04-05_15h35.03.235,VisualSearchFaces,2024.2.4,Win32,60.24096386,,,,,,,,1480.9044,1481.0166,1481.0167,1483.0165,block3,j,1,1,31,71,11,1,1,top_left,friendly,neutral,0.6174,,,,,,,,,,,,,,,,,
,,,,,799384,m,y,r,n,14,0,2025-04-05_15h35.03.235,VisualSearchFaces,2024.2.4,Win32,60.24096386,,,,,,,,1484.021,1484.1328,1484.1329,1486.1327,block3,j,1,1,32,72,4,1,1,bottom_right,neutral,friendly,0.5016,,,,,,,,,,,,,,,,,
,,,,,799384,m,y,r,n,14,0,2025-04-05_15h35.03.235,VisualSearchFaces,2024.2.4,Win32,60.24096386,,,,,,,,1487.1354,1487.237,1487.2371,1489.2324,block3,f,1,1,33,73,21,1,0,top_left,neutral,no_target,0.4627,,,,,,,,,,,,,,,,,
,,,,,799384,m,y,r,n,14,0,2025-04-05_15h35.03.235,VisualSearchFaces,2024.2.4,Win32,60.24096386,,,,,,,,1490.2367,1490.3487,1490.3488,1492.3487,block3,f,1,1,34,74,30,1,0,centre,friendly,no_target,0.8513,,,,,,,,,,,,,,,,,
,,,,,799384,m,y,r,n,14,0,2025-04-05_15h35.03.235,VisualSearchFaces,2024.2.4,Win32,60.24096386,,,,,,,,1493.3531,1493.4561,1493.4562,1495.4482,block3,f,1,1,35,75,38,1,0,bottom_left,threatening,no_target,0.9258,,,,,,,,,,,,,,,,,
,,,,,799384,m,y,r,n,14,0,2025-04-05_15h35.03.235,VisualSearchFaces,2024.2.4,Win32,60.24096386,,,,,,,,1496.4523,1496.5646,1496.5646,1498.5645,block3,f,1,1,36,76,28,1,0,bottom_left,neutral,no_target,0.5713,,,,,,,,,,,,,,,,,
,,,,,799384,m,y,r,n,14,0,2025-04-05_15h35.03.235,VisualSearchFaces,2024.2.4,Win32,60.24096386,,,,,,,,1499.5689,1499.6673,1499.6674,1501.6642,block3,j,1,1,37,77,5,1,1,centre,neutral,threatening,0.3477,,,,,,,,,,,,,,,,,
,,,,,799384,m,y,r,n,14,0,2025-04-05_15h35.03.235,VisualSearchFaces,2024.2.4,Win32,60.24096386,,,,,,,,1502.6684,1502.7674,1502.7674,1504.7638,block3,j,1,1,38,78,1,1,1,top_left,neutral,friendly,0.3975,,,,,,,,,,,,,,,,,
,,,,,799384,m,y,r,n,14,0,2025-04-05_15h35.03.235,VisualSearchFaces,2024.2.4,Win32,60.24096386,,,,,,,,1505.7662,1505.8804,1505.8804,1507.8801,block3,f,1,1,39,79,25,1,0,centre,neutral,no_target,0.6172,,,,,,,,,,,,,,,,,
,,,,,799384,m,y,r,n,14,0,2025-04-05_15h35.03.235,VisualSearchFaces,2024.2.4,Win32,60.24096386,,,1514.2862,1548.6585,space,34.332,,1549.6627,1549.7748,1549.7749,1551.7748,block4,f,1,0,0,0,31,1,0,top_left,friendly,no_target,1.2372,,1507.8844,1514.2796,space,6.3658,,,,,,,,,,,,
,,,,,799384,m,y,r,n,14,0,2025-04-05_15h35.03.235,VisualSearchFaces,2024.2.4,Win32,60.24096386,,,,,,,,1552.7775,1552.8825,1552.8825,1554.8744,block4,j,1,0,1,1,11,1,1,top_left,friendly,neutral,0.3862,,,,,,,,,,,,,,,,,
,,,,,799384,m,y,r,n,14,0,2025-04-05_15h35.03.235,VisualSearchFaces,2024.2.4,Win32,60.24096386,,,,,,,,1555.8772,1555.9778,1555.9779,1557.9741,block4,j,1,0,2,2,16,1,1,top_left,threatening,neutral,0.4341,,,,,,,,,,,,,,,,,
,,,,,799384,m,y,r,n,14,0,2025-04-05_15h35.03.235,VisualSearchFaces,2024.2.4,Win32,60.24096386,,,,,,,,1558.9769,1559.0904,1559.0905,1561.0901,block4,f,1,0,3,3,20,1,0,centre,neutral,no_target,0.3839,,,,,,,,,,,,,,,,,
,,,,,799384,m,y,r,n,14,0,2025-04-05_15h35.03.235,VisualSearchFaces,2024.2.4,Win32,60.24096386,,,,,,,,1562.0928,1562.1911,1562.1913,1564.1897,block4,j,1,0,4,4,5,1,1,centre,neutral,threatening,0.4212,,,,,,,,,,,,,,,,,
,,,,,799384,m,y,r,n,14,0,2025-04-05_15h35.03.235,VisualSearchFaces,2024.2.4,Win32,60.24096386,,,,,,,,1565.1941,1565.2921,1565.2923,1567.2896,block4,j,1,0,5,5,6,1,1,top_left,neutral,threatening,0.4149,,,,,,,,,,,,,,,,,
,,,,,799384,m,y,r,n,14,0,2025-04-05_15h35.03.235,VisualSearchFaces,2024.2.4,Win32,60.24096386,,,,,,,,1568.2934,1568.399,1568.3991,1570.3893,block4,f,1,0,6,6,33,1,0,bottom_left,friendly,no_target,0.9236,,,,,,,,,,,,,,,,,
,,,,,799384,m,y,r,n,14,0,2025-04-05_15h35.03.235,VisualSearchFaces,2024.2.4,Win32,60.24096386,,,,,,,,1571.393,1571.5053,1571.5054,1573.5054,block4,f,1,0,7,7,38,1,0,bottom_left,threatening,no_target,0.5014,,,,,,,,,,,,,,,,,
,,,,,799384,m,y,r,n,14,0,2025-04-05_15h35.03.235,VisualSearchFaces,2024.2.4,Win32,60.24096386,,,,,,,,1574.5083,1574.6094,1574.6094,1576.6092,block4,j,1,0,8,8,10,1,1,centre,friendly,neutral,0.3804,,,,,,,,,,,,,,,,,
,,,,,799384,m,y,r,n,14,0,2025-04-05_15h35.03.235,VisualSearchFaces,2024.2.4,Win32,60.24096386,,,,,,,,1577.6132,1577.7213,1577.7213,1579.7212,block4,f,1,0,9,9,22,1,0,top_right,neutral,no_target,0.568,,,,,,,,,,,,,,,,,
,,,,,799384,m,y,r,n,14,0,2025-04-05_15h35.03.235,VisualSearchFaces,2024.2.4,Win32,60.24096386,,,,,,,,1580.7259,1580.8377,1580.8379,1582.8376,block4,f,1,0,10,10,35,1,0,centre,threatening,no_target,0.6342,,,,,,,,,,,,,,,,,
,,,,,799384,m,y,r,n,14,0,2025-04-05_15h35.03.235,VisualSearchFaces,2024.2.4,Win32,60.24096386,,,,,,,,1583.8404,1583.954,1583.954,1585.9538,block4,f,1,0,11,11,30,1,0,centre,friendly,no_target,0.8156,,,,,,,,,,,,,,,,,
,,,,,799384,m,y,r,n,14,0,2025-04-05_15h35.03.235,VisualSearchFaces,2024.2.4,Win32,60.24096386,,,,,,,,1586.9577,1587.07,1587.07,1589.0701,block4,f,1,0,12,12,21,1,0,top_left,neutral,no_target,0.518,,,,,,,,,,,,,,,,,
,,,,,799384,m,y,r,n,14,0,2025-04-05_15h35.03.235,VisualSearchFaces,2024.2.4,Win32,60.24096386,,,,,,,,1590.0721,1590.177,1590.177,1592.1838,block4,f,1,0,13,13,28,1,0,bottom_left,neutral,no_target,0.482,,,,,,,,,,,,,,,,,
,,,,,799384,m,y,r,n,14,0,2025-04-05_15h35.03.235,VisualSearchFaces,2024.2.4,Win32,60.24096386,,,,,,,,1593.1746,1593.2796,1593.2797,1595.2692,block4,j,1,0,14,14,19,1,1,bottom_right,threatening,neutral,0.4487,,,,,,,,,,,,,,,,,
,,,,,799384,m,y,r,n,14,0,2025-04-05_15h35.03.235,VisualSearchFaces,2024.2.4,Win32,60.24096386,,,,,,,,1596.2713,1596.3857,1596.3858,1598.3858,block4,f,1,0,15,15,36,1,0,top_left,threatening,no_target,0.5681,,,,,,,,,,,,,,,,,
,,,,,799384,m,y,r,n,14,0,2025-04-05_15h35.03.235,VisualSearchFaces,2024.2.4,Win32,60.24096386,,,,,,,,1599.3885,1599.4875,1599.4875,1601.4853,block4,f,1,0,16,16,27,1,0,top_right,neutral,no_target,0.6155,,,,,,,,,,,,,,,,,
,,,,,799384,m,y,r,n,14,0,2025-04-05_15h35.03.235,VisualSearchFaces,2024.2.4,Win32,60.24096386,,,,,,,,1602.4876,1602.6013,1602.6013,1604.6017,block4,j,1,0,17,17,3,1,1,bottom_left,neutral,friendly,0.3999,,,,,,,,,,,,,,,,,
,,,,,799384,m,y,r,n,14,0,2025-04-05_15h35.03.235,VisualSearchFaces,2024.2.4,Win32,60.24096386,,,,,,,,1605.6043,1605.7178,1605.7179,1607.7178,block4,j,1,0,18,18,8,1,1,bottom_left,neutral,threatening,0.4683,,,,,,,,,,,,,,,,,
,,,,,799384,m,y,r,n,14,0,2025-04-05_15h35.03.235,VisualSearchFaces,2024.2.4,Win32,60.24096386,,,,,,,,1608.7212,1608.8343,1608.8344,1610.8342,block4,f,1,0,19,19,23,1,0,bottom_left,neutral,no_target,0.4842,,,,,,,,,,,,,,,,,
,,,,,799384,m,y,r,n,14,0,2025-04-05_15h35.03.235,VisualSearchFaces,2024.2.4,Win32,60.24096386,,,,,,,,1611.8385,1611.9371,1611.9372,1613.9336,block4,j,1,0,20,20,4,1,1,bottom_right,neutral,friendly,0.464,,,,,,,,,,,,,,,,,
,,,,,799384,m,y,r,n,14,0,2025-04-05_15h35.03.235,VisualSearchFaces,2024.2.4,Win32,60.24096386,,,,,,,,1614.9384,1615.0339,1615.034,1617.0336,block4,f,1,0,21,21,39,1,0,bottom_right,threatening,no_target,0.5663,,,,,,,,,,,,,,,,,
,,,,,799384,m,y,r,n,14,0,2025-04-05_15h35.03.235,VisualSearchFaces,2024.2.4,Win32,60.24096386,,,,,,,,1618.0381,1618.1477,1618.1478,1620.1496,block4,f,1,0,22,22,32,1,0,top_right,friendly,no_target,0.6396,,,,,,,,,,,,,,,,,
,,,,,799384,m,y,r,n,14,0,2025-04-05_15h35.03.235,VisualSearchFaces,2024.2.4,Win32,60.24096386,,,,,,,,1621.1542,1621.2639,1621.2639,1623.2659,block4,f,1,0,23,23,26,1,0,top_left,neutral,no_target,0.6036,,,,,,,,,,,,,,,,,
,,,,,799384,m,y,r,n,14,0,2025-04-05_15h35.03.235,VisualSearchFaces,2024.2.4,Win32,60.24096386,,,,,,,,1624.2712,1624.3789,1624.3789,1626.3782,block4,j,1,0,24,24,9,1,1,bottom_right,neutral,threatening,0.501,,,,,,,,,,,,,,,,,
,,,,,799384,m,y,r,n,14,0,2025-04-05_15h35.03.235,VisualSearchFaces,2024.2.4,Win32,60.24096386,,,,,,,,1627.3809,1627.4854,1627.4854,1629.4821,block4,f,1,0,25,25,25,1,0,centre,neutral,no_target,0.5996,,,,,,,,,,,,,,,,,
,,,,,799384,m,y,r,n,14,0,2025-04-05_15h35.03.235,VisualSearchFaces,2024.2.4,Win32,60.24096386,,,,,,,,1630.4861,1630.5982,1630.5983,1632.5981,block4,j,1,0,26,26,13,1,1,bottom_left,friendly,neutral,0.5353,,,,,,,,,,,,,,,,,
,,,,,799384,m,y,r,n,14,0,2025-04-05_15h35.03.235,VisualSearchFaces,2024.2.4,Win32,60.24096386,,,,,,,,1633.6027,1633.7131,1633.7131,1635.7117,block4,f,1,0,27,27,34,1,0,bottom_right,friendly,no_target,0.7174,,,,,,,,,,,,,,,,,
,,,,,799384,m,y,r,n,14,0,2025-04-05_15h35.03.235,VisualSearchFaces,2024.2.4,Win32,60.24096386,,,,,,,,1636.7188,1636.8218,1636.8219,1638.8138,block4,j,1,0,28,28,12,1,1,top_right,friendly,neutral,0.5722,,,,,,,,,,,,,,,,,
,,,,,799384,m,y,r,n,14,0,2025-04-05_15h35.03.235,VisualSearchFaces,2024.2.4,Win32,60.24096386,,,,,,,,1639.8173,1639.9258,1639.9258,1641.9302,block4,f,1,0,29,29,24,1,0,bottom_right,neutral,no_target,0.5015,,,,,,,,,,,,,,,,,
,,,,,799384,m,y,r,n,14,0,2025-04-05_15h35.03.235,VisualSearchFaces,2024.2.4,Win32,60.24096386,,,,,,,,1642.933,1643.038,1643.038,1645.0296,block4,j,1,0,30,30,1,1,1,top_left,neutral,friendly,0.4773,,,,,,,,,,,,,,,,,
,,,,,799384,m,y,r,n,14,0,2025-04-05_15h35.03.235,VisualSearchFaces,2024.2.4,Win32,60.24096386,,,,,,,,1646.0326,1646.1368,1646.1368,1648.1353,block4,j,1,0,31,31,18,1,1,bottom_left,threatening,neutral,0.4428,,,,,,,,,,,,,,,,,
,,,,,799384,m,y,r,n,14,0,2025-04-05_15h35.03.235,VisualSearchFaces,2024.2.4,Win32,60.24096386,,,,,,,,1649.1324,1649.2377,1649.2378,1651.229,block4,j,1,0,32,32,0,1,1,centre,neutral,friendly,0.5665,,,,,,,,,,,,,,,,,
,,,,,799384,m,y,r,n,14,0,2025-04-05_15h35.03.235,VisualSearchFaces,2024.2.4,Win32,60.24096386,,,,,,,,1652.2318,1652.3457,1652.3457,1654.3455,block4,f,1,0,33,33,29,1,0,bottom_right,neutral,no_target,0.4829,,,,,,,,,,,,,,,,,
,,,,,799384,m,y,r,n,14,0,2025-04-05_15h35.03.235,VisualSearchFaces,2024.2.4,Win32,60.24096386,,,,,,,,1655.35,1655.4486,1655.4486,1657.445,block4,j,1,0,34,34,7,1,1,top_right,neutral,threatening,0.4976,,,,,,,,,,,,,,,,,
,,,,,799384,m,y,r,n,14,0,2025-04-05_15h35.03.235,VisualSearchFaces,2024.2.4,Win32,60.24096386,,,,,,,,1658.4493,1658.546,1658.546,1660.5448,block4,j,1,0,35,35,2,1,1,top_right,neutral,friendly,0.4163,,,,,,,,,,,,,,,,,
,,,,,799384,m,y,r,n,14,0,2025-04-05_15h35.03.235,VisualSearchFaces,2024.2.4,Win32,60.24096386,,,,,,,,1661.549,1661.6611,1661.6612,1663.661,block4,j,1,0,36,36,14,1,1,bottom_right,friendly,neutral,0.6622,,,,,,,,,,,,,,,,,
,,,,,799384,m,y,r,n,14,0,2025-04-05_15h35.03.235,VisualSearchFaces,2024.2.4,Win32,60.24096386,,,,,,,,1664.6655,1664.7757,1664.7758,1666.7771,block4,j,1,0,37,37,15,1,1,centre,threatening,neutral,0.6085,,,,,,,,,,,,,,,,,
,,,,,799384,m,y,r,n,14,0,2025-04-05_15h35.03.235,VisualSearchFaces,2024.2.4,Win32,60.24096386,,,,,,,,1667.7797,1667.8937,1667.8938,1669.8933,block4,j,1,0,38,38,17,1,1,top_right,threatening,neutral,0.6185,,,,,,,,,,,,,,,,,
,,,,,799384,m,y,r,n,14,0,2025-04-05_15h35.03.235,VisualSearchFaces,2024.2.4,Win32,60.24096386,,,,,,,,1670.8956,1670.9942,1670.9943,1672.993,block4,f,1,0,39,39,37,1,0,top_right,threatening,no_target,0.7171,,,,,,,,,,,,,,,,,
,,,,,799384,m,y,r,n,14,0,2025-04-05_15h35.03.235,VisualSearchFaces,2024.2.4,Win32,60.24096386,,,,,,,,1673.9953,1674.0982,1674.0982,1676.0926,block4,j,1,1,0,40,15,1,1,centre,threatening,neutral,0.6282,,,,,,,,,,,,,,,,,
,,,,,799384,m,y,r,n,14,0,2025-04-05_15h35.03.235,VisualSearchFaces,2024.2.4,Win32,60.24096386,,,,,,,,1677.0955,1677.2088,1677.2088,1679.2089,block4,f,1,1,1,41,33,1,0,bottom_left,friendly,no_target,0.8162,,,,,,,,,,,,,,,,,
,,,,,799384,m,y,r,n,14,0,2025-04-05_15h35.03.235,VisualSearchFaces,2024.2.4,Win32,60.24096386,,,,,,,,1680.2117,1680.3111,1680.3112,1682.3085,block4,j,1,1,2,42,13,1,1,bottom_left,friendly,neutral,0.7297,,,,,,,,,,,,,,,,,
,,,,,799384,m,y,r,n,14,0,2025-04-05_15h35.03.235,VisualSearchFaces,2024.2.4,Win32,60.24096386,,,,,,,,1683.3158,1683.4219,1683.4219,1685.4251,block4,j,1,1,3,43,16,1,1,top_left,threatening,neutral,0.6236,,,,,,,,,,,,,,,,,
,,,,,799384,m,y,r,n,14,0,2025-04-05_15h35.03.235,VisualSearchFaces,2024.2.4,Win32,60.24096386,,,,,,,,1686.4285,1686.5381,1686.5382,1688.5413,block4,j,1,1,4,44,7,1,1,top_right,neutral,threatening,0.4213,,,,,,,,,,,,,,,,,
,,,,,799384,m,y,r,n,14,0,2025-04-05_15h35.03.235,VisualSearchFaces,2024.2.4,Win32,60.24096386,,,,,,,,1689.5462,1689.6422,1689.6422,1691.6408,block4,j,1,1,5,45,4,1,1,bottom_right,neutral,friendly,0.6323,,,,,,,,,,,,,,,,,
,,,,,799384,m,y,r,n,14,0,2025-04-05_15h35.03.235,VisualSearchFaces,2024.2.4,Win32,60.24096386,,,,,,,,1692.6441,1692.7541,1692.7542,1694.7538,block4,j,1,1,6,46,2,1,1,top_right,neutral,friendly,0.5173,,,,,,,,,,,,,,,,,
,,,,,799384,m,y,r,n,14,0,2025-04-05_15h35.03.235,VisualSearchFaces,2024.2.4,Win32,60.24096386,,,,,,,,1695.7579,1695.8603,1695.8603,1697.8567,block4,j,1,1,7,47,17,1,1,top_right,threatening,neutral,0.5151,,,,,,,,,,,,,,,,,
,,,,,799384,m,y,r,n,14,0,2025-04-05_15h35.03.235,VisualSearchFaces,2024.2.4,Win32,60.24096386,,,,,,,,1698.8601,1698.9677,1698.9677,1700.9565,block4,f,1,1,8,48,29,1,0,bottom_right,neutral,no_target,0.7397,,,,,,,,,,,,,,,,,
,,,,,799384,m,y,r,n,14,0,2025-04-05_15h35.03.235,VisualSearchFaces,2024.2.4,Win32,60.24096386,,,,,,,,1701.9608,1702.073,1702.073,1704.0727,block4,f,1,1,9,49,38,1,0,bottom_left,threatening,no_target,0.8169,,,,,,,,,,,,,,,,,
,,,,,799384,m,y,r,n,14,0,2025-04-05_15h35.03.235,VisualSearchFaces,2024.2.4,Win32,60.24096386,,,,,,,,1705.0772,1705.1868,1705.1868,1707.1889,block4,f,1,1,10,50,28,1,0,bottom_left,neutral,no_target,0.6701,,,,,,,,,,,,,,,,,
,,,,,799384,m,y,r,n,14,0,2025-04-05_15h35.03.235,VisualSearchFaces,2024.2.4,Win32,60.24096386,,,,,,,,1708.1929,1708.2982,1708.2983,1710.2885,block4,j,1,1,11,51,14,1,1,bottom_right,friendly,neutral,0.5247,,,,,,,,,,,,,,,,,
,,,,,799384,m,y,r,n,14,0,2025-04-05_15h35.03.235,VisualSearchFaces,2024.2.4,Win32,60.24096386,,,,,,,,1711.2929,1711.4035,1711.4036,1713.4035,block4,f,1,1,12,52,34,1,0,bottom_right,friendly,no_target,0.5335,,,,,,,,,,,,,,,,,
,,,,,799384,m,y,r,n,14,0,2025-04-05_15h35.03.235,VisualSearchFaces,2024.2.4,Win32,60.24096386,,,,,,,,1714.4097,1714.5129,1714.513,1716.504,block4,f,1,1,13,53,36,1,0,top_left,threatening,no_target,0.6259,,,,,,,,,,,,,,,,,
,,,,,799384,m,y,r,n,14,0,2025-04-05_15h35.03.235,VisualSearchFaces,2024.2.4,Win32,60.24096386,,,,,,,,1717.5068,1717.6093,1717.6093,1719.6041,block4,f,1,1,14,54,21,1,0,top_left,neutral,no_target,0.629,,,,,,,,,,,,,,,,,
,,,,,799384,m,y,r,n,14,0,2025-04-05_15h35.03.235,VisualSearchFaces,2024.2.4,Win32,60.24096386,,,,,,,,1720.6087,1720.7095,1720.7095,1722.7039,block4,f,1,1,15,55,22,1,0,top_right,neutral,no_target,0.4181,,,,,,,,,,,,,,,,,
,,,,,799384,m,y,r,n,14,0,2025-04-05_15h35.03.235,VisualSearchFaces,2024.2.4,Win32,60.24096386,,,,,,,,1723.7075,1723.8175,1723.8176,1725.8203,block4,f,1,1,16,56,20,1,0,centre,neutral,no_target,0.3878,,,,,,,,,,,,,,,,,
,,,,,799384,m,y,r,n,14,0,2025-04-05_15h35.03.235,VisualSearchFaces,2024.2.4,Win32,60.24096386,,,,,,,,1726.8242,1726.9299,1726.9299,1728.9195,block4,j,1,1,17,57,18,1,1,bottom_left,threatening,neutral,0.6064,,,,,,,,,,,,,,,,,
,,,,,799384,m,y,r,n,14,0,2025-04-05_15h35.03.235,VisualSearchFaces,2024.2.4,Win32,60.24096386,,,,,,,,1729.9232,1730.0198,1730.0199,1732.0191,block4,f,1,1,18,58,24,1,0,bottom_right,neutral,no_target,0.7177,,,,,,,,,,,,,,,,,
,,,,,799384,m,y,r,n,14,0,2025-04-05_15h35.03.235,VisualSearchFaces,2024.2.4,Win32,60.24096386,,,,,,,,1733.0234,1733.122,1733.1221,1735.1191,block4,f,1,1,19,59,25,1,0,centre,neutral,no_target,0.4472,,,,,,,,,,,,,,,,,
,,,,,799384,m,y,r,n,14,0,2025-04-05_15h35.03.235,VisualSearchFaces,2024.2.4,Win32,60.24096386,,,,,,,,1736.1223,1736.2199,1736.22,1738.2184,block4,j,1,1,20,60,0,1,1,centre,neutral,friendly,0.4823,,,,,,,,,,,,,,,,,
,,,,,799384,m,y,r,n,14,0,2025-04-05_15h35.03.235,VisualSearchFaces,2024.2.4,Win32,60.24096386,,,,,,,,1739.2228,1739.3277,1739.3277,1741.3162,block4,f,1,1,21,61,39,1,0,bottom_right,threatening,no_target,0.6586,,,,,,,,,,,,,,,,,
,,,,,799384,m,y,r,n,14,0,2025-04-05_15h35.03.235,VisualSearchFaces,2024.2.4,Win32,60.24096386,,,,,,,,1742.3344,1742.4344,1742.4344,1744.4345,block4,j,1,1,22,62,1,1,1,top_left,neutral,friendly,0.4167,,,,,,,,,,,,,,,,,
,,,,,799384,m,y,r,n,14,0,2025-04-05_15h35.03.235,VisualSearchFaces,2024.2.4,Win32,60.24096386,,,,,,,,1745.439,1745.5363,1745.5363,1747.534,block4,j,1,1,23,63,12,1,1,top_right,friendly,neutral,0.4987,,,,,,,,,,,,,,,,,
,,,,,799384,m,y,r,n,14,0,2025-04-05_15h35.03.235,VisualSearchFaces,2024.2.4,Win32,60.24096386,,,,,,,,1748.5382,1748.6503,1748.6504,1750.6503,block4,f,1,1,24,64,37,1,0,top_right,threatening,no_target,0.7677,,,,,,,,,,,,,,,,,
,,,,,799384,m,y,r,n,14,0,2025-04-05_15h35.03.235,VisualSearchFaces,2024.2.4,Win32,60.24096386,,,,,,,,1751.6542,1751.76,1751.76,1753.7499,block4,f,1,1,25,65,27,1,0,top_right,neutral,no_target,1.0568,,,,,,,,,,,,,,,,,
,,,,,799384,m,y,r,n,14,0,2025-04-05_15h35.03.235,VisualSearchFaces,2024.2.4,Win32,60.24096386,,,,,,,,1754.755,1754.8614,1754.8614,1756.8495,block4,j,1,1,26,66,10,1,1,centre,friendly,neutral,0.5539,,,,,,,,,,,,,,,,,
,,,,,799384,m,y,r,n,14,0,2025-04-05_15h35.03.235,VisualSearchFaces,2024.2.4,Win32,60.24096386,,,,,,,,1757.8539,1757.9528,1757.9529,1759.9493,block4,f,1,1,27,67,31,1,0,top_left,friendly,no_target,0.6964,,,,,,,,,,,,,,,,,
,,,,,799384,m,y,r,n,14,0,2025-04-05_15h35.03.235,VisualSearchFaces,2024.2.4,Win32,60.24096386,,,,,,,,1760.9531,1761.0519,1761.0519,1763.0488,block4,j,1,1,28,68,11,1,1,top_left,friendly,neutral,0.5309,,,,,,,,,,,,,,,,,
,,,,,799384,m,y,r,n,14,0,2025-04-05_15h35.03.235,VisualSearchFaces,2024.2.4,Win32,60.24096386,,,,,,,,1764.053,1764.1544,1764.1544,1766.1485,block4,j,1,1,29,69,19,1,1,bottom_right,threatening,neutral,0.4687,,,,,,,,,,,,,,,,,
,,,,,799384,m,y,r,n,14,0,2025-04-05_15h35.03.235,VisualSearchFaces,2024.2.4,Win32,60.24096386,,,,,,,,1767.1528,1767.2647,1767.2647,1769.2647,block4,f,1,1,30,70,30,1,0,centre,friendly,no_target,0.7842,,,,,,,,,,,,,,,,,
,,,,,799384,m,y,r,n,14,0,2025-04-05_15h35.03.235,VisualSearchFaces,2024.2.4,Win32,60.24096386,,,,,,,,1770.269,1770.3811,1770.3811,1772.3809,block4,j,1,1,31,71,8,1,1,bottom_left,neutral,threatening,0.4841,,,,,,,,,,,,,,,,,
,,,,,799384,m,y,r,n,14,0,2025-04-05_15h35.03.235,VisualSearchFaces,2024.2.4,Win32,60.24096386,,,,,,,,1773.3856,1773.4958,1773.4958,1775.4973,block4,j,1,1,32,72,5,1,1,centre,neutral,threatening,0.5011,,,,,,,,,,,,,,,,,
,,,,,799384,m,y,r,n,14,0,2025-04-05_15h35.03.235,VisualSearchFaces,2024.2.4,Win32,60.24096386,,,,,,,,1776.5018,1776.6058,1776.6058,1778.5968,block4,f,1,1,33,73,32,1,0,top_right,friendly,no_target,0.8401,,,,,,,,,,,,,,,,,
,,,,,799384,m,y,r,n,14,0,2025-04-05_15h35.03.235,VisualSearchFaces,2024.2.4,Win32,60.24096386,,,,,,,,1779.6019,1779.7027,1779.7027,1781.6966,block4,f,1,1,34,74,35,1,0,centre,threatening,no_target,0.8275,,,,,,,,,,,,,,,,,
,,,,,799384,m,y,r,n,14,0,2025-04-05_15h35.03.235,VisualSearchFaces,2024.2.4,Win32,60.24096386,,,,,,,,1782.701,1782.8015,1782.8015,1784.7961,block4,j,1,1,35,75,6,1,1,top_left,neutral,threatening,0.5287,,,,,,,,,,,,,,,,,
,,,,,799384,m,y,r,n,14,0,2025-04-05_15h35.03.235,VisualSearchFaces,2024.2.4,Win32,60.24096386,,,,,,,,1785.8004,1785.9106,1785.9106,1787.9123,block4,j,1,1,36,76,9,1,1,bottom_right,neutral,threatening,0.4665,,,,,,,,,,,,,,,,,
,,,,,799384,m,y,r,n,14,0,2025-04-05_15h35.03.235,VisualSearchFaces,2024.2.4,Win32,60.24096386,,,,,,,,1788.9169,1789.0271,1789.0273,1791.0254,block4,f,1,1,37,77,23,1,0,bottom_left,neutral,no_target,0.5838,,,,,,,,,,,,,,,,,
,,,,,799384,m,y,r,n,14,0,2025-04-05_15h35.03.235,VisualSearchFaces,2024.2.4,Win32,60.24096386,,,,,,,,1792.0289,1792.1341,1792.1341,1794.1284,block4,j,1,1,38,78,3,1,1,bottom_left,neutral,friendly,0.4779,,,,,,,,,,,,,,,,,
,,,,,799384,m,y,r,n,14,0,2025-04-05_15h35.03.235,VisualSearchFaces,2024.2.4,Win32,60.24096386,,,,,,,,1795.1325,1795.2432,1795.2432,1797.2446,block4,f,1,1,39,79,26,1,0,top_left,neutral,no_target,0.5177,,,,,,,,,,,,,,,,,
,,,,,799384,m,y,r,n,14,0,2025-04-05_15h35.03.235,VisualSearchFaces,2024.2.4,Win32,60.24096386,,,,,,,,,,,,,,,,,,,,,,,,,,1797.2487,1804.4604,space,7.1815,,1804.4629,1833.3805,lines and dots,1,[1833.3809999999999],[1833.3809999999999],,,,,
,,,,,799384,m,y,r,n,14,0,2025-04-05_15h35.03.235,VisualSearchFaces,2024.2.4,Win32,60.24096386,,,,,,,,,,,,,,,,,,,,,,,,,,,,,,,,,,,,,1833.3821,1835.6567,space,2.2486,
