Welcome.started,Welcome.stopped,keyboard_space_welcome.keys,keyboard_space_welcome.rt,keyboard_space_welcome.duration,participant,gender,(corrected) normal vision,handedness,exp vse,session,skip_intro,date,expName,psychopyVersion,OS,frameRate,stimulus_exposure.started,stimulus_exposure.stopped,Block_intro.started,Block_intro.stopped,keyboard_space.keys,keyboard_space.rt,keyboard_space.duration,Stimulus.started,Stimulus.stopped,fixation_ending.started,fixation_ending.stopped,block_id,keyboard_response.keys,keyboard_response.corr,trials.thisRepN,trials.thisTrialN,trials.thisN,trials.thisIndex,trials.ran,target_presence,target_position,background_emotion,target_emotion,keyboard_response.rt,keyboard_response.duration,Block_outro.started,Block_outro.stopped,keyboard_space_end.keys,keyboard_space_end.rt,keyboard_space_end.duration,Question_about_stimulus.started,Question_about_stimulus.stopped,textbox_response.text,button.numClicks,button.timesOn,button.timesOff,Thanks.started,Thanks.stopped,keyboard_space_goodbye.keys,keyboard_space_goodbye.rt,keyboard_space_goodbye.duration
0.0006,44.2306,space,44.2037,,900032,f,y,r,y,12,0,2025-04-03_13h01.10.119,VisualSearchFaces,2024.2.4,MacIntel,59.17159763,,,,,,,,,,,,,,,,,,,,,,,,,,,,,,,,,,,,,,,,,
,,,,,900032,f,y,r,y,12,0,2025-04-03_13h01.10.119,VisualSearchFaces,2024.2.4,MacIntel,59.17159763,65.3516,68.3648,68.3696,98.1452,space,29.7514,,99.1463,99.4111,99.4112,101.4103,practice1,,0,0,0,0,18,1,1,bottom_left,threatening,neutral,,,,,,,,,,,,,,,,,,
,,,,,900032,f,y,r,y,12,0,2025-04-03_13h01.10.119,VisualSearchFaces,2024.2.4,MacIntel,59.17159763,,,,,,,,102.4107,102.6749,102.675,104.674,practice1,f,1,0,1,1,34,1,0,bottom_right,friendly,no_target,1.682,,,,,,,,,,,,,,,,,
,,,,,900032,f,y,r,y,12,0,2025-04-03_13h01.10.119,VisualSearchFaces,2024.2.4,MacIntel,59.17159763,,,,,,,,105.6749,105.9397,105.9397,107.9384,practice1,f,1,0,2,2,36,1,0,top_left,threatening,no_target,0.9993,,,,,,,,,,,,,,,,,
,,,,,900032,f,y,r,y,12,0,2025-04-03_13h01.10.119,VisualSearchFaces,2024.2.4,MacIntel,59.17159763,,,,,,,,108.9387,109.2037,109.2037,111.2031,practice1,f,1,0,3,3,30,1,0,centre,friendly,no_target,0.9211,,,,,,,,,,,,,,,,,
,,,,,900032,f,y,r,y,12,0,2025-04-03_13h01.10.119,VisualSearchFaces,2024.2.4,MacIntel,59.17159763,,,,,,,,112.2037,112.4685,112.4685,114.4672,practice1,j,1,0,4,4,15,1,1,centre,threatening,neutral,0.6692,,,,,,,,,,,,,,,,,
,,,,,900032,f,y,r,y,12,0,2025-04-03_13h01.10.119,VisualSearchFaces,2024.2.4,MacIntel,59.17159763,,,,,,,,115.4682,115.7328,115.7328,117.732,practice1,f,1,0,5,5,23,1,0,bottom_left,neutral,no_target,0.6212,,,,,,,,,,,,,,,,,
,,,,,900032,f,y,r,y,12,0,2025-04-03_13h01.10.119,VisualSearchFaces,2024.2.4,MacIntel,59.17159763,,,,,,,,118.7325,118.998,118.998,120.9966,practice1,f,1,0,6,6,35,1,0,centre,threatening,no_target,0.6005,,,,,,,,,,,,,,,,,
,,,,,900032,f,y,r,y,12,0,2025-04-03_13h01.10.119,VisualSearchFaces,2024.2.4,MacIntel,59.17159763,,,,,,,,121.997,122.2626,122.2627,124.2607,practice1,f,0,0,7,7,9,1,1,bottom_right,neutral,threatening,0.5489,,,,,,,,,,,,,,,,,
,,,,,900032,f,y,r,y,12,0,2025-04-03_13h01.10.119,VisualSearchFaces,2024.2.4,MacIntel,59.17159763,,,,,,,,125.2615,125.5264,125.5264,127.5254,practice1,f,1,0,8,8,22,1,0,top_right,neutral,no_target,0.4498,,,,,,,,,,,,,,,,,
,,,,,900032,f,y,r,y,12,0,2025-04-03_13h01.10.119,VisualSearchFaces,2024.2.4,MacIntel,59.17159763,,,,,,,,128.5256,128.775,128.775,130.7731,practice1,j,1,0,9,9,4,1,1,bottom_right,neutral,friendly,0.2164,,,,,,,,,,,,,,,,,
,,,,,900032,f,y,r,y,12,0,2025-04-03_13h01.10.119,VisualSearchFaces,2024.2.4,MacIntel,59.17159763,,,,,,,,131.7736,132.039,132.0391,134.0381,practice1,j,1,0,10,10,0,1,1,centre,neutral,friendly,0.5658,,,,,,,,,,,,,,,,,
,,,,,900032,f,y,r,y,12,0,2025-04-03_13h01.10.119,VisualSearchFaces,2024.2.4,MacIntel,59.17159763,,,,,,,,135.0374,135.2877,135.2877,137.2865,practice1,j,1,0,11,11,17,1,1,top_right,threatening,neutral,0.9491,,,,,,,,,,,,,,,,,
,,,,,900032,f,y,r,y,12,0,2025-04-03_13h01.10.119,VisualSearchFaces,2024.2.4,MacIntel,59.17159763,,,,,,,,138.286,138.5523,138.5524,140.5504,practice1,f,1,0,12,12,39,1,0,bottom_right,threatening,no_target,0.5983,,,,,,,,,,,,,,,,,
,,,,,900032,f,y,r,y,12,0,2025-04-03_13h01.10.119,VisualSearchFaces,2024.2.4,MacIntel,59.17159763,,,,,,,,141.551,141.8167,141.8167,143.8147,practice1,j,1,0,13,13,16,1,1,top_left,threatening,neutral,0.5156,,,,,,,,,,,,,,,,,
,,,,,900032,f,y,r,y,12,0,2025-04-03_13h01.10.119,VisualSearchFaces,2024.2.4,MacIntel,59.17159763,,,,,,,,144.8155,145.081,145.0811,147.0785,practice1,f,1,0,14,14,33,1,0,bottom_left,friendly,no_target,0.4666,,,,,,,,,,,,,,,,,
,,,,,900032,f,y,r,y,12,0,2025-04-03_13h01.10.119,VisualSearchFaces,2024.2.4,MacIntel,59.17159763,,,,,,,,148.0792,148.3449,148.3449,150.3435,practice1,j,1,0,15,15,12,1,1,top_right,friendly,neutral,0.3725,,,,,,,,,,,,,,,,,
,,,,,900032,f,y,r,y,12,0,2025-04-03_13h01.10.119,VisualSearchFaces,2024.2.4,MacIntel,59.17159763,,,,,,,,151.3445,151.6094,151.6094,153.608,practice1,j,1,0,16,16,5,1,1,centre,neutral,threatening,0.533,,,,,,,,,,,,,,,,,
,,,,,900032,f,y,r,y,12,0,2025-04-03_13h01.10.119,VisualSearchFaces,2024.2.4,MacIntel,59.17159763,,,,,,,,154.6092,154.8735,154.8735,156.8724,practice1,f,1,0,17,17,26,1,0,top_left,neutral,no_target,0.3498,,,,,,,,,,,,,,,,,
,,,,,900032,f,y,r,y,12,0,2025-04-03_13h01.10.119,VisualSearchFaces,2024.2.4,MacIntel,59.17159763,,,,,,,,157.8728,158.1386,158.1387,160.1375,practice1,f,1,0,18,18,25,1,0,centre,neutral,no_target,0.2998,,,,,,,,,,,,,,,,,
,,,,,900032,f,y,r,y,12,0,2025-04-03_13h01.10.119,VisualSearchFaces,2024.2.4,MacIntel,59.17159763,,,,,,,,161.1372,161.4025,161.4026,163.4016,practice1,f,1,0,19,19,20,1,0,centre,neutral,no_target,0.273,,,,,,,,,,,,,,,,,
,,,,,900032,f,y,r,y,12,0,2025-04-03_13h01.10.119,VisualSearchFaces,2024.2.4,MacIntel,59.17159763,,,,,,,,164.4013,164.668,164.668,166.6663,practice1,j,1,0,20,20,8,1,1,bottom_left,neutral,threatening,0.4316,,,,,,,,,,,,,,,,,
,,,,,900032,f,y,r,y,12,0,2025-04-03_13h01.10.119,VisualSearchFaces,2024.2.4,MacIntel,59.17159763,,,,,,,,167.6657,167.9152,167.9152,169.9144,practice1,f,1,0,21,21,32,1,0,top_right,friendly,no_target,0.5588,,,,,,,,,,,,,,,,,
,,,,,900032,f,y,r,y,12,0,2025-04-03_13h01.10.119,VisualSearchFaces,2024.2.4,MacIntel,59.17159763,,,,,,,,170.9139,171.1634,171.1634,173.162,practice1,j,1,0,22,22,3,1,1,bottom_left,neutral,friendly,0.5209,,,,,,,,,,,,,,,,,
,,,,,900032,f,y,r,y,12,0,2025-04-03_13h01.10.119,VisualSearchFaces,2024.2.4,MacIntel,59.17159763,,,,,,,,174.1616,174.411,174.4111,176.4098,practice1,j,1,0,23,23,19,1,1,bottom_right,threatening,neutral,0.4865,,,,,,,,,,,,,,,,,
,,,,,900032,f,y,r,y,12,0,2025-04-03_13h01.10.119,VisualSearchFaces,2024.2.4,MacIntel,59.17159763,,,,,,,,177.4103,177.6754,177.6754,179.6737,practice1,j,1,0,24,24,13,1,1,bottom_left,friendly,neutral,0.4708,,,,,,,,,,,,,,,,,
,,,,,900032,f,y,r,y,12,0,2025-04-03_13h01.10.119,VisualSearchFaces,2024.2.4,MacIntel,59.17159763,,,,,,,,180.6745,180.9397,180.9397,182.9386,practice1,f,1,0,25,25,21,1,0,top_left,neutral,no_target,0.4362,,,,,,,,,,,,,,,,,
,,,,,900032,f,y,r,y,12,0,2025-04-03_13h01.10.119,VisualSearchFaces,2024.2.4,MacIntel,59.17159763,,,,,,,,183.9393,184.1883,184.1884,186.1871,practice1,f,1,0,26,26,24,1,0,bottom_right,neutral,no_target,0.3218,,,,,,,,,,,,,,,,,
,,,,,900032,f,y,r,y,12,0,2025-04-03_13h01.10.119,VisualSearchFaces,2024.2.4,MacIntel,59.17159763,,,,,,,,187.1871,187.4523,187.4524,189.4521,practice1,j,1,0,27,27,1,1,1,top_left,neutral,friendly,0.3368,,,,,,,,,,,,,,,,,
,,,,,900032,f,y,r,y,12,0,2025-04-03_13h01.10.119,VisualSearchFaces,2024.2.4,MacIntel,59.17159763,,,,,,,,190.4511,190.7,190.7,192.6989,practice1,j,1,0,28,28,11,1,1,top_left,friendly,neutral,0.5525,,,,,,,,,,,,,,,,,
,,,,,900032,f,y,r,y,12,0,2025-04-03_13h01.10.119,VisualSearchFaces,2024.2.4,MacIntel,59.17159763,,,,,,,,193.6994,193.9485,193.9485,195.9463,practice1,f,1,0,29,29,27,1,0,top_right,neutral,no_target,0.4847,,,,,,,,,,,,,,,,,
,,,,,900032,f,y,r,y,12,0,2025-04-03_13h01.10.119,VisualSearchFaces,2024.2.4,MacIntel,59.17159763,,,,,,,,196.9475,197.2129,197.2129,199.2117,practice1,j,1,0,30,30,6,1,1,top_left,neutral,threatening,0.2665,,,,,,,,,,,,,,,,,
,,,,,900032,f,y,r,y,12,0,2025-04-03_13h01.10.119,VisualSearchFaces,2024.2.4,MacIntel,59.17159763,,,,,,,,200.2125,200.4772,200.4773,202.476,practice1,j,1,0,31,31,10,1,1,centre,friendly,neutral,0.4404,,,,,,,,,,,,,,,,,
,,,,,900032,f,y,r,y,12,0,2025-04-03_13h01.10.119,VisualSearchFaces,2024.2.4,MacIntel,59.17159763,,,,,,,,203.477,203.7424,203.7425,205.7407,practice1,f,1,0,32,32,28,1,0,bottom_left,neutral,no_target,0.3174,,,,,,,,,,,,,,,,,
,,,,,900032,f,y,r,y,12,0,2025-04-03_13h01.10.119,VisualSearchFaces,2024.2.4,MacIntel,59.17159763,,,,,,,,206.7407,207.0063,207.0064,209.0049,practice1,f,1,0,33,33,38,1,0,bottom_left,threatening,no_target,1.2831,,,,,,,,,,,,,,,,,
,,,,,900032,f,y,r,y,12,0,2025-04-03_13h01.10.119,VisualSearchFaces,2024.2.4,MacIntel,59.17159763,,,,,,,,210.0053,210.2709,210.2709,212.2695,practice1,j,1,0,34,34,14,1,1,bottom_right,friendly,neutral,0.4494,,,,,,,,,,,,,,,,,
,,,,,900032,f,y,r,y,12,0,2025-04-03_13h01.10.119,VisualSearchFaces,2024.2.4,MacIntel,59.17159763,,,,,,,,213.2692,213.535,213.535,215.5336,practice1,f,0,0,35,35,2,1,1,top_right,neutral,friendly,0.3699,,,,,,,,,,,,,,,,,
,,,,,900032,f,y,r,y,12,0,2025-04-03_13h01.10.119,VisualSearchFaces,2024.2.4,MacIntel,59.17159763,,,,,,,,216.5346,216.7993,216.7993,218.7982,practice1,j,1,0,36,36,7,1,1,top_right,neutral,threatening,0.4058,,,,,,,,,,,,,,,,,
,,,,,900032,f,y,r,y,12,0,2025-04-03_13h01.10.119,VisualSearchFaces,2024.2.4,MacIntel,59.17159763,,,,,,,,219.7991,220.0646,220.0646,222.0627,practice1,f,1,0,37,37,31,1,0,top_left,friendly,no_target,0.8511,,,,,,,,,,,,,,,,,
,,,,,900032,f,y,r,y,12,0,2025-04-03_13h01.10.119,VisualSearchFaces,2024.2.4,MacIntel,59.17159763,,,,,,,,223.0629,223.3281,223.3281,225.3268,practice1,f,1,0,38,38,29,1,0,bottom_right,neutral,no_target,0.539,,,,,,,,,,,,,,,,,
,,,,,900032,f,y,r,y,12,0,2025-04-03_13h01.10.119,VisualSearchFaces,2024.2.4,MacIntel,59.17159763,,,,,,,,226.3279,226.5926,226.5927,228.5913,practice1,f,1,0,39,39,37,1,0,top_right,threatening,no_target,0.6368,,,,,,,,,,,,,,,,,
,,,,,900032,f,y,r,y,12,0,2025-04-03_13h01.10.119,VisualSearchFaces,2024.2.4,MacIntel,59.17159763,,,241.4193,249.6441,space,8.2043,,250.6455,250.7608,250.7608,252.7587,practice2,f,1,0,0,0,33,1,0,bottom_left,friendly,no_target,1.1896,,228.5916,241.4174,space,12.808,,,,,,,,,,,,
,,,,,900032,f,y,r,y,12,0,2025-04-03_13h01.10.119,VisualSearchFaces,2024.2.4,MacIntel,59.17159763,,,,,,,,253.7594,253.8587,253.8587,255.8575,practice2,j,1,0,1,1,19,1,1,bottom_right,threatening,neutral,0.7697,,,,,,,,,,,,,,,,,
,,,,,900032,f,y,r,y,12,0,2025-04-03_13h01.10.119,VisualSearchFaces,2024.2.4,MacIntel,59.17159763,,,,,,,,256.8579,256.9724,256.9724,258.9711,practice2,f,1,0,2,2,20,1,0,centre,neutral,no_target,0.6015,,,,,,,,,,,,,,,,,
,,,,,900032,f,y,r,y,12,0,2025-04-03_13h01.10.119,VisualSearchFaces,2024.2.4,MacIntel,59.17159763,,,,,,,,259.9723,260.0879,260.0879,262.0868,practice2,f,1,0,3,3,29,1,0,bottom_right,neutral,no_target,0.4017,,,,,,,,,,,,,,,,,
,,,,,900032,f,y,r,y,12,0,2025-04-03_13h01.10.119,VisualSearchFaces,2024.2.4,MacIntel,59.17159763,,,,,,,,263.0864,263.1855,263.1855,265.1843,practice2,f,1,0,4,4,36,1,0,top_left,threatening,no_target,0.808,,,,,,,,,,,,,,,,,
,,,,,900032,f,y,r,y,12,0,2025-04-03_13h01.10.119,VisualSearchFaces,2024.2.4,MacIntel,59.17159763,,,,,,,,266.1847,266.3002,266.3002,268.2986,practice2,f,1,0,5,5,26,1,0,top_left,neutral,no_target,0.4565,,,,,,,,,,,,,,,,,
,,,,,900032,f,y,r,y,12,0,2025-04-03_13h01.10.119,VisualSearchFaces,2024.2.4,MacIntel,59.17159763,,,,,,,,269.2993,269.3985,269.3985,271.3964,practice2,f,1,0,6,6,24,1,0,bottom_right,neutral,no_target,0.5056,,,,,,,,,,,,,,,,,
,,,,,900032,f,y,r,y,12,0,2025-04-03_13h01.10.119,VisualSearchFaces,2024.2.4,MacIntel,59.17159763,,,,,,,,272.3983,272.5123,272.5123,274.5113,practice2,j,1,0,7,7,2,1,1,top_right,neutral,friendly,0.4223,,,,,,,,,,,,,,,,,
,,,,,900032,f,y,r,y,12,0,2025-04-03_13h01.10.119,VisualSearchFaces,2024.2.4,MacIntel,59.17159763,,,,,,,,275.5122,275.6273,275.6273,277.6263,practice2,f,1,0,8,8,27,1,0,top_right,neutral,no_target,0.383,,,,,,,,,,,,,,,,,
,,,,,900032,f,y,r,y,12,0,2025-04-03_13h01.10.119,VisualSearchFaces,2024.2.4,MacIntel,59.17159763,,,,,,,,278.6262,278.7417,278.7417,280.7406,practice2,j,0,0,9,9,38,1,0,bottom_left,threatening,no_target,0.1721,,,,,,,,,,,,,,,,,
,,,,,900032,f,y,r,y,12,0,2025-04-03_13h01.10.119,VisualSearchFaces,2024.2.4,MacIntel,59.17159763,,,,,,,,281.7406,281.8565,281.8565,283.8547,practice2,j,1,0,10,10,11,1,1,top_left,friendly,neutral,0.4868,,,,,,,,,,,,,,,,,
,,,,,900032,f,y,r,y,12,0,2025-04-03_13h01.10.119,VisualSearchFaces,2024.2.4,MacIntel,59.17159763,,,,,,,,284.8553,284.9704,284.9704,286.9694,practice2,j,1,0,11,11,15,1,1,centre,threatening,neutral,0.5195,,,,,,,,,,,,,,,,,
,,,,,900032,f,y,r,y,12,0,2025-04-03_13h01.10.119,VisualSearchFaces,2024.2.4,MacIntel,59.17159763,,,,,,,,287.9698,288.0853,288.0854,290.084,practice2,j,1,0,12,12,17,1,1,top_right,threatening,neutral,0.9027,,,,,,,,,,,,,,,,,
,,,,,900032,f,y,r,y,12,0,2025-04-03_13h01.10.119,VisualSearchFaces,2024.2.4,MacIntel,59.17159763,,,,,,,,291.084,291.1837,291.1838,293.1817,practice2,j,1,0,13,13,13,1,1,bottom_left,friendly,neutral,0.8144,,,,,,,,,,,,,,,,,
,,,,,900032,f,y,r,y,12,0,2025-04-03_13h01.10.119,VisualSearchFaces,2024.2.4,MacIntel,59.17159763,,,,,,,,294.1822,294.2985,294.2986,296.2972,practice2,f,1,0,14,14,22,1,0,top_right,neutral,no_target,0.4161,,,,,,,,,,,,,,,,,
,,,,,900032,f,y,r,y,12,0,2025-04-03_13h01.10.119,VisualSearchFaces,2024.2.4,MacIntel,59.17159763,,,,,,,,297.2973,297.4125,297.4126,299.4112,practice2,f,1,0,15,15,37,1,0,top_right,threatening,no_target,0.7196,,,,,,,,,,,,,,,,,
,,,,,900032,f,y,r,y,12,0,2025-04-03_13h01.10.119,VisualSearchFaces,2024.2.4,MacIntel,59.17159763,,,,,,,,300.4122,300.5274,300.5274,302.5265,practice2,j,1,0,16,16,3,1,1,bottom_left,neutral,friendly,0.5334,,,,,,,,,,,,,,,,,
,,,,,900032,f,y,r,y,12,0,2025-04-03_13h01.10.119,VisualSearchFaces,2024.2.4,MacIntel,59.17159763,,,,,,,,303.5267,303.642,303.642,305.6412,practice2,f,1,0,17,17,30,1,0,centre,friendly,no_target,1.0503,,,,,,,,,,,,,,,,,
,,,,,900032,f,y,r,y,12,0,2025-04-03_13h01.10.119,VisualSearchFaces,2024.2.4,MacIntel,59.17159763,,,,,,,,306.6404,306.7407,306.7407,308.7382,practice2,j,1,0,18,18,16,1,1,top_left,threatening,neutral,0.5997,,,,,,,,,,,,,,,,,
,,,,,900032,f,y,r,y,12,0,2025-04-03_13h01.10.119,VisualSearchFaces,2024.2.4,MacIntel,59.17159763,,,,,,,,309.7388,309.8544,309.8544,311.8527,practice2,j,1,0,19,19,6,1,1,top_left,neutral,threatening,0.4166,,,,,,,,,,,,,,,,,
,,,,,900032,f,y,r,y,12,0,2025-04-03_13h01.10.119,VisualSearchFaces,2024.2.4,MacIntel,59.17159763,,,,,,,,312.8532,312.9527,312.9527,314.9514,practice2,f,1,0,20,20,39,1,0,bottom_right,threatening,no_target,0.6717,,,,,,,,,,,,,,,,,
,,,,,900032,f,y,r,y,12,0,2025-04-03_13h01.10.119,VisualSearchFaces,2024.2.4,MacIntel,59.17159763,,,,,,,,315.9509,316.051,316.0511,318.0488,practice2,j,1,0,21,21,4,1,1,bottom_right,neutral,friendly,0.6577,,,,,,,,,,,,,,,,,
,,,,,900032,f,y,r,y,12,0,2025-04-03_13h01.10.119,VisualSearchFaces,2024.2.4,MacIntel,59.17159763,,,,,,,,319.0495,319.1648,319.1648,321.1638,practice2,f,1,0,22,22,32,1,0,top_right,friendly,no_target,0.7188,,,,,,,,,,,,,,,,,
,,,,,900032,f,y,r,y,12,0,2025-04-03_13h01.10.119,VisualSearchFaces,2024.2.4,MacIntel,59.17159763,,,,,,,,322.1642,322.2795,322.2795,324.278,practice2,f,1,0,23,23,21,1,0,top_left,neutral,no_target,0.5267,,,,,,,,,,,,,,,,,
,,,,,900032,f,y,r,y,12,0,2025-04-03_13h01.10.119,VisualSearchFaces,2024.2.4,MacIntel,59.17159763,,,,,,,,325.2791,325.394,325.394,327.3925,practice2,j,1,0,24,24,14,1,1,bottom_right,friendly,neutral,0.5564,,,,,,,,,,,,,,,,,
,,,,,900032,f,y,r,y,12,0,2025-04-03_13h01.10.119,VisualSearchFaces,2024.2.4,MacIntel,59.17159763,,,,,,,,328.3929,328.5092,328.5092,330.508,practice2,f,1,0,25,25,25,1,0,centre,neutral,no_target,0.4353,,,,,,,,,,,,,,,,,
,,,,,900032,f,y,r,y,12,0,2025-04-03_13h01.10.119,VisualSearchFaces,2024.2.4,MacIntel,59.17159763,,,,,,,,331.5078,331.6073,331.6073,333.6053,practice2,j,1,0,26,26,12,1,1,top_right,friendly,neutral,0.5553,,,,,,,,,,,,,,,,,
,,,,,900032,f,y,r,y,12,0,2025-04-03_13h01.10.119,VisualSearchFaces,2024.2.4,MacIntel,59.17159763,,,,,,,,334.606,334.7212,334.7212,336.7201,practice2,j,1,0,27,27,1,1,1,top_left,neutral,friendly,0.4181,,,,,,,,,,,,,,,,,
,,,,,900032,f,y,r,y,12,0,2025-04-03_13h01.10.119,VisualSearchFaces,2024.2.4,MacIntel,59.17159763,,,,,,,,337.7206,337.8363,337.8364,339.8347,practice2,f,1,0,28,28,35,1,0,centre,threatening,no_target,0.5941,,,,,,,,,,,,,,,,,
,,,,,900032,f,y,r,y,12,0,2025-04-03_13h01.10.119,VisualSearchFaces,2024.2.4,MacIntel,59.17159763,,,,,,,,340.8344,340.9513,340.9515,342.9491,practice2,j,1,0,29,29,5,1,1,centre,neutral,threatening,0.5011,,,,,,,,,,,,,,,,,
,,,,,900032,f,y,r,y,12,0,2025-04-03_13h01.10.119,VisualSearchFaces,2024.2.4,MacIntel,59.17159763,,,,,,,,343.9491,344.0646,344.0647,346.0636,practice2,j,1,0,30,30,18,1,1,bottom_left,threatening,neutral,1.0199,,,,,,,,,,,,,,,,,
,,,,,900032,f,y,r,y,12,0,2025-04-03_13h01.10.119,VisualSearchFaces,2024.2.4,MacIntel,59.17159763,,,,,,,,347.0637,347.1798,347.1798,349.178,practice2,j,1,0,31,31,10,1,1,centre,friendly,neutral,0.6541,,,,,,,,,,,,,,,,,
,,,,,900032,f,y,r,y,12,0,2025-04-03_13h01.10.119,VisualSearchFaces,2024.2.4,MacIntel,59.17159763,,,,,,,,350.1791,350.2939,350.2939,352.2926,practice2,j,1,0,32,32,7,1,1,top_right,neutral,threatening,0.4986,,,,,,,,,,,,,,,,,
,,,,,900032,f,y,r,y,12,0,2025-04-03_13h01.10.119,VisualSearchFaces,2024.2.4,MacIntel,59.17159763,,,,,,,,353.2929,353.4094,353.4094,355.408,practice2,f,1,0,33,33,23,1,0,bottom_left,neutral,no_target,0.3441,,,,,,,,,,,,,,,,,
,,,,,900032,f,y,r,y,12,0,2025-04-03_13h01.10.119,VisualSearchFaces,2024.2.4,MacIntel,59.17159763,,,,,,,,356.4074,356.5074,356.5075,358.506,practice2,f,1,0,34,34,28,1,0,bottom_left,neutral,no_target,0.4531,,,,,,,,,,,,,,,,,
,,,,,900032,f,y,r,y,12,0,2025-04-03_13h01.10.119,VisualSearchFaces,2024.2.4,MacIntel,59.17159763,,,,,,,,359.5056,359.6215,359.6215,361.6208,practice2,f,1,0,35,35,31,1,0,top_left,friendly,no_target,1.2542,,,,,,,,,,,,,,,,,
,,,,,900032,f,y,r,y,12,0,2025-04-03_13h01.10.119,VisualSearchFaces,2024.2.4,MacIntel,59.17159763,,,,,,,,362.6209,362.7364,362.7365,364.7348,practice2,j,1,0,36,36,0,1,1,centre,neutral,friendly,0.5493,,,,,,,,,,,,,,,,,
,,,,,900032,f,y,r,y,12,0,2025-04-03_13h01.10.119,VisualSearchFaces,2024.2.4,MacIntel,59.17159763,,,,,,,,365.7352,365.8506,365.8506,367.8493,practice2,f,1,0,37,37,34,1,0,bottom_right,friendly,no_target,0.8117,,,,,,,,,,,,,,,,,
,,,,,900032,f,y,r,y,12,0,2025-04-03_13h01.10.119,VisualSearchFaces,2024.2.4,MacIntel,59.17159763,,,,,,,,368.8495,368.9496,368.9496,370.9469,practice2,j,1,0,38,38,8,1,1,bottom_left,neutral,threatening,0.578,,,,,,,,,,,,,,,,,
,,,,,900032,f,y,r,y,12,0,2025-04-03_13h01.10.119,VisualSearchFaces,2024.2.4,MacIntel,59.17159763,,,,,,,,371.9475,372.0466,372.0466,374.0452,practice2,j,1,0,39,39,9,1,1,bottom_right,neutral,threatening,0.5032,,,,,,,,,,,,,,,,,
,,,,,900032,f,y,r,y,12,0,2025-04-03_13h01.10.119,VisualSearchFaces,2024.2.4,MacIntel,59.17159763,,,385.223,394.1825,space,8.9401,,395.1817,395.2812,395.2812,397.2795,block1,f,1,0,0,0,35,1,0,centre,threatening,no_target,0.8147,,374.0463,385.2214,space,11.1506,,,,,,,,,,,,
,,,,,900032,f,y,r,y,12,0,2025-04-03_13h01.10.119,VisualSearchFaces,2024.2.4,MacIntel,59.17159763,,,,,,,,398.2796,398.3963,398.3964,400.3944,block1,j,1,0,1,1,13,1,1,bottom_left,friendly,neutral,0.52,,,,,,,,,,,,,,,,,
,,,,,900032,f,y,r,y,12,0,2025-04-03_13h01.10.119,VisualSearchFaces,2024.2.4,MacIntel,59.17159763,,,,,,,,401.3948,401.4941,401.4942,403.4922,block1,f,1,0,2,2,36,1,0,top_left,threatening,no_target,0.8335,,,,,,,,,,,,,,,,,
,,,,,900032,f,y,r,y,12,0,2025-04-03_13h01.10.119,VisualSearchFaces,2024.2.4,MacIntel,59.17159763,,,,,,,,404.4931,404.6089,404.6089,406.6071,block1,j,1,0,3,3,15,1,1,centre,threatening,neutral,1.2338,,,,,,,,,,,,,,,,,
,,,,,900032,f,y,r,y,12,0,2025-04-03_13h01.10.119,VisualSearchFaces,2024.2.4,MacIntel,59.17159763,,,,,,,,407.6071,407.7237,407.7238,409.7225,block1,j,1,0,4,4,5,1,1,centre,neutral,threatening,0.5073,,,,,,,,,,,,,,,,,
,,,,,900032,f,y,r,y,12,0,2025-04-03_13h01.10.119,VisualSearchFaces,2024.2.4,MacIntel,59.17159763,,,,,,,,410.7217,410.8213,410.8214,412.8196,block1,f,1,0,5,5,39,1,0,bottom_right,threatening,no_target,0.6175,,,,,,,,,,,,,,,,,
,,,,,900032,f,y,r,y,12,0,2025-04-03_13h01.10.119,VisualSearchFaces,2024.2.4,MacIntel,59.17159763,,,,,,,,413.8199,413.9191,413.9191,415.9179,block1,f,1,0,6,6,20,1,0,centre,neutral,no_target,0.4841,,,,,,,,,,,,,,,,,
,,,,,900032,f,y,r,y,12,0,2025-04-03_13h01.10.119,VisualSearchFaces,2024.2.4,MacIntel,59.17159763,,,,,,,,416.9179,417.0173,417.0173,419.0162,block1,f,1,0,7,7,24,1,0,bottom_right,neutral,no_target,0.3894,,,,,,,,,,,,,,,,,
,,,,,900032,f,y,r,y,12,0,2025-04-03_13h01.10.119,VisualSearchFaces,2024.2.4,MacIntel,59.17159763,,,,,,,,420.0165,420.1316,420.1317,422.1302,block1,f,1,0,8,8,22,1,0,top_right,neutral,no_target,0.5279,,,,,,,,,,,,,,,,,
,,,,,900032,f,y,r,y,12,0,2025-04-03_13h01.10.119,VisualSearchFaces,2024.2.4,MacIntel,59.17159763,,,,,,,,423.1305,423.2465,423.2465,425.2448,block1,f,1,0,9,9,25,1,0,centre,neutral,no_target,0.4399,,,,,,,,,,,,,,,,,
,,,,,900032,f,y,r,y,12,0,2025-04-03_13h01.10.119,VisualSearchFaces,2024.2.4,MacIntel,59.17159763,,,,,,,,426.2447,426.3607,426.3607,428.3597,block1,j,1,0,10,10,19,1,1,bottom_right,threatening,neutral,0.65,,,,,,,,,,,,,,,,,
,,,,,900032,f,y,r,y,12,0,2025-04-03_13h01.10.119,VisualSearchFaces,2024.2.4,MacIntel,59.17159763,,,,,,,,429.3595,429.4748,429.4749,431.4734,block1,j,1,0,11,11,9,1,1,bottom_right,neutral,threatening,1.5347,,,,,,,,,,,,,,,,,
,,,,,900032,f,y,r,y,12,0,2025-04-03_13h01.10.119,VisualSearchFaces,2024.2.4,MacIntel,59.17159763,,,,,,,,432.4743,432.5737,432.5737,434.5717,block1,f,1,0,12,12,21,1,0,top_left,neutral,no_target,0.6741,,,,,,,,,,,,,,,,,
,,,,,900032,f,y,r,y,12,0,2025-04-03_13h01.10.119,VisualSearchFaces,2024.2.4,MacIntel,59.17159763,,,,,,,,435.5724,435.6881,435.6881,437.6865,block1,j,1,0,13,13,14,1,1,bottom_right,friendly,neutral,0.8704,,,,,,,,,,,,,,,,,
,,,,,900032,f,y,r,y,12,0,2025-04-03_13h01.10.119,VisualSearchFaces,2024.2.4,MacIntel,59.17159763,,,,,,,,438.6864,438.7862,438.7862,440.7848,block1,f,1,0,14,14,30,1,0,centre,friendly,no_target,0.6853,,,,,,,,,,,,,,,,,
,,,,,900032,f,y,r,y,12,0,2025-04-03_13h01.10.119,VisualSearchFaces,2024.2.4,MacIntel,59.17159763,,,,,,,,441.7859,441.9008,441.9008,443.8992,block1,j,1,0,15,15,7,1,1,top_right,neutral,threatening,0.4995,,,,,,,,,,,,,,,,,
,,,,,900032,f,y,r,y,12,0,2025-04-03_13h01.10.119,VisualSearchFaces,2024.2.4,MacIntel,59.17159763,,,,,,,,444.8999,445.0153,445.0153,447.0135,block1,j,1,0,16,16,10,1,1,centre,friendly,neutral,0.7199,,,,,,,,,,,,,,,,,
,,,,,900032,f,y,r,y,12,0,2025-04-03_13h01.10.119,VisualSearchFaces,2024.2.4,MacIntel,59.17159763,,,,,,,,448.0141,448.1292,448.1292,450.1285,block1,j,1,0,17,17,3,1,1,bottom_left,neutral,friendly,0.8235,,,,,,,,,,,,,,,,,
,,,,,900032,f,y,r,y,12,0,2025-04-03_13h01.10.119,VisualSearchFaces,2024.2.4,MacIntel,59.17159763,,,,,,,,451.1287,451.2436,451.2437,453.2424,block1,j,1,0,18,18,12,1,1,top_right,friendly,neutral,0.8103,,,,,,,,,,,,,,,,,
,,,,,900032,f,y,r,y,12,0,2025-04-03_13h01.10.119,VisualSearchFaces,2024.2.4,MacIntel,59.17159763,,,,,,,,454.2436,454.3426,454.3426,456.3413,block1,f,1,0,19,19,37,1,0,top_right,threatening,no_target,0.5181,,,,,,,,,,,,,,,,,
,,,,,900032,f,y,r,y,12,0,2025-04-03_13h01.10.119,VisualSearchFaces,2024.2.4,MacIntel,59.17159763,,,,,,,,457.3421,457.4564,457.4564,459.4557,block1,f,1,0,20,20,23,1,0,bottom_left,neutral,no_target,0.4504,,,,,,,,,,,,,,,,,
,,,,,900032,f,y,r,y,12,0,2025-04-03_13h01.10.119,VisualSearchFaces,2024.2.4,MacIntel,59.17159763,,,,,,,,460.4555,460.5708,460.5708,462.5699,block1,j,1,0,21,21,16,1,1,top_left,threatening,neutral,0.8862,,,,,,,,,,,,,,,,,
,,,,,900032,f,y,r,y,12,0,2025-04-03_13h01.10.119,VisualSearchFaces,2024.2.4,MacIntel,59.17159763,,,,,,,,463.5705,463.6698,463.6698,465.6681,block1,f,1,0,22,22,26,1,0,top_left,neutral,no_target,0.5339,,,,,,,,,,,,,,,,,
,,,,,900032,f,y,r,y,12,0,2025-04-03_13h01.10.119,VisualSearchFaces,2024.2.4,MacIntel,59.17159763,,,,,,,,466.6687,466.7834,466.7835,468.7823,block1,f,1,0,23,23,27,1,0,top_right,neutral,no_target,0.4834,,,,,,,,,,,,,,,,,
,,,,,900032,f,y,r,y,12,0,2025-04-03_13h01.10.119,VisualSearchFaces,2024.2.4,MacIntel,59.17159763,,,,,,,,469.7828,469.898,469.898,471.8968,block1,j,1,0,24,24,17,1,1,top_right,threatening,neutral,0.9336,,,,,,,,,,,,,,,,,
,,,,,900032,f,y,r,y,12,0,2025-04-03_13h01.10.119,VisualSearchFaces,2024.2.4,MacIntel,59.17159763,,,,,,,,472.8979,473.0128,473.0129,475.0114,block1,j,1,0,25,25,11,1,1,top_left,friendly,neutral,0.6332,,,,,,,,,,,,,,,,,
,,,,,900032,f,y,r,y,12,0,2025-04-03_13h01.10.119,VisualSearchFaces,2024.2.4,MacIntel,59.17159763,,,,,,,,476.0125,476.1281,476.1281,478.1264,block1,f,1,0,26,26,28,1,0,bottom_left,neutral,no_target,0.5329,,,,,,,,,,,,,,,,,
,,,,,900032,f,y,r,y,12,0,2025-04-03_13h01.10.119,VisualSearchFaces,2024.2.4,MacIntel,59.17159763,,,,,,,,479.1262,479.226,479.226,481.2251,block1,j,1,0,27,27,6,1,1,top_left,neutral,threatening,1.292,,,,,,,,,,,,,,,,,
,,,,,900032,f,y,r,y,12,0,2025-04-03_13h01.10.119,VisualSearchFaces,2024.2.4,MacIntel,59.17159763,,,,,,,,482.2254,482.3397,482.3397,484.3388,block1,f,1,0,28,28,34,1,0,bottom_right,friendly,no_target,0.6821,,,,,,,,,,,,,,,,,
,,,,,900032,f,y,r,y,12,0,2025-04-03_13h01.10.119,VisualSearchFaces,2024.2.4,MacIntel,59.17159763,,,,,,,,485.3393,485.4548,485.4548,487.454,block1,j,1,0,29,29,0,1,1,centre,neutral,friendly,0.4547,,,,,,,,,,,,,,,,,
,,,,,900032,f,y,r,y,12,0,2025-04-03_13h01.10.119,VisualSearchFaces,2024.2.4,MacIntel,59.17159763,,,,,,,,488.454,488.5692,488.5692,490.5679,block1,j,1,0,30,30,2,1,1,top_right,neutral,friendly,0.456,,,,,,,,,,,,,,,,,
,,,,,900032,f,y,r,y,12,0,2025-04-03_13h01.10.119,VisualSearchFaces,2024.2.4,MacIntel,59.17159763,,,,,,,,491.5692,491.6836,491.6836,493.6824,block1,f,1,0,31,31,29,1,0,bottom_right,neutral,no_target,0.4495,,,,,,,,,,,,,,,,,
,,,,,900032,f,y,r,y,12,0,2025-04-03_13h01.10.119,VisualSearchFaces,2024.2.4,MacIntel,59.17159763,,,,,,,,494.6834,494.7981,494.7981,496.7974,block1,j,1,0,32,32,18,1,1,bottom_left,threatening,neutral,0.6519,,,,,,,,,,,,,,,,,
,,,,,900032,f,y,r,y,12,0,2025-04-03_13h01.10.119,VisualSearchFaces,2024.2.4,MacIntel,59.17159763,,,,,,,,497.7976,497.9128,497.9128,499.9116,block1,f,1,0,33,33,33,1,0,bottom_left,friendly,no_target,0.7381,,,,,,,,,,,,,,,,,
,,,,,900032,f,y,r,y,12,0,2025-04-03_13h01.10.119,VisualSearchFaces,2024.2.4,MacIntel,59.17159763,,,,,,,,500.9114,501.0119,501.0119,503.0098,block1,f,1,0,34,34,38,1,0,bottom_left,threatening,no_target,0.7214,,,,,,,,,,,,,,,,,
,,,,,900032,f,y,r,y,12,0,2025-04-03_13h01.10.119,VisualSearchFaces,2024.2.4,MacIntel,59.17159763,,,,,,,,504.0098,504.1261,504.1261,506.1247,block1,j,1,0,35,35,8,1,1,bottom_left,neutral,threatening,0.4599,,,,,,,,,,,,,,,,,
,,,,,900032,f,y,r,y,12,0,2025-04-03_13h01.10.119,VisualSearchFaces,2024.2.4,MacIntel,59.17159763,,,,,,,,507.1247,507.2404,507.2404,509.2387,block1,f,1,0,36,36,31,1,0,top_left,friendly,no_target,0.6006,,,,,,,,,,,,,,,,,
,,,,,900032,f,y,r,y,12,0,2025-04-03_13h01.10.119,VisualSearchFaces,2024.2.4,MacIntel,59.17159763,,,,,,,,510.2397,510.3548,510.3548,512.3534,block1,j,1,0,37,37,4,1,1,bottom_right,neutral,friendly,0.4505,,,,,,,,,,,,,,,,,
,,,,,900032,f,y,r,y,12,0,2025-04-03_13h01.10.119,VisualSearchFaces,2024.2.4,MacIntel,59.17159763,,,,,,,,513.3543,513.4694,513.4694,515.4679,block1,f,1,0,38,38,32,1,0,top_right,friendly,no_target,0.5334,,,,,,,,,,,,,,,,,
,,,,,900032,f,y,r,y,12,0,2025-04-03_13h01.10.119,VisualSearchFaces,2024.2.4,MacIntel,59.17159763,,,,,,,,516.4687,516.5837,516.5838,518.5827,block1,j,1,0,39,39,1,1,1,top_left,neutral,friendly,0.6942,,,,,,,,,,,,,,,,,
,,,,,900032,f,y,r,y,12,0,2025-04-03_13h01.10.119,VisualSearchFaces,2024.2.4,MacIntel,59.17159763,,,,,,,,519.5836,519.6986,519.6986,521.6978,block1,f,1,1,0,40,28,1,0,bottom_left,neutral,no_target,0.4848,,,,,,,,,,,,,,,,,
,,,,,900032,f,y,r,y,12,0,2025-04-03_13h01.10.119,VisualSearchFaces,2024.2.4,MacIntel,59.17159763,,,,,,,,522.6974,522.814,522.814,524.8117,block1,f,1,1,1,41,33,1,0,bottom_left,friendly,no_target,0.6827,,,,,,,,,,,,,,,,,
,,,,,900032,f,y,r,y,12,0,2025-04-03_13h01.10.119,VisualSearchFaces,2024.2.4,MacIntel,59.17159763,,,,,,,,525.8122,525.9278,525.9278,527.9266,block1,f,1,1,2,42,36,1,0,top_left,threatening,no_target,0.6393,,,,,,,,,,,,,,,,,
,,,,,900032,f,y,r,y,12,0,2025-04-03_13h01.10.119,VisualSearchFaces,2024.2.4,MacIntel,59.17159763,,,,,,,,528.927,529.0422,529.0423,531.0422,block1,f,1,1,3,43,38,1,0,bottom_left,threatening,no_target,0.4009,,,,,,,,,,,,,,,,,
,,,,,900032,f,y,r,y,12,0,2025-04-03_13h01.10.119,VisualSearchFaces,2024.2.4,MacIntel,59.17159763,,,,,,,,532.0421,532.1573,532.1574,534.1562,block1,f,1,1,4,44,25,1,0,centre,neutral,no_target,0.6329,,,,,,,,,,,,,,,,,
,,,,,900032,f,y,r,y,12,0,2025-04-03_13h01.10.119,VisualSearchFaces,2024.2.4,MacIntel,59.17159763,,,,,,,,535.1573,535.2721,535.2722,537.2703,block1,j,1,1,5,45,1,1,1,top_left,neutral,friendly,0.4495,,,,,,,,,,,,,,,,,
,,,,,900032,f,y,r,y,12,0,2025-04-03_13h01.10.119,VisualSearchFaces,2024.2.4,MacIntel,59.17159763,,,,,,,,538.2707,538.3865,538.3865,540.3849,block1,f,1,1,6,46,29,1,0,bottom_right,neutral,no_target,0.6501,,,,,,,,,,,,,,,,,
,,,,,900032,f,y,r,y,12,0,2025-04-03_13h01.10.119,VisualSearchFaces,2024.2.4,MacIntel,59.17159763,,,,,,,,541.3848,541.5004,541.5004,543.4999,block1,f,1,1,7,47,22,1,0,top_right,neutral,no_target,0.3684,,,,,,,,,,,,,,,,,
,,,,,900032,f,y,r,y,12,0,2025-04-03_13h01.10.119,VisualSearchFaces,2024.2.4,MacIntel,59.17159763,,,,,,,,544.4993,544.6151,544.6151,546.6139,block1,j,1,1,8,48,7,1,1,top_right,neutral,threatening,0.3501,,,,,,,,,,,,,,,,,
,,,,,900032,f,y,r,y,12,0,2025-04-03_13h01.10.119,VisualSearchFaces,2024.2.4,MacIntel,59.17159763,,,,,,,,547.6153,547.7302,547.7303,549.7287,block1,j,1,1,9,49,10,1,1,centre,friendly,neutral,0.583,,,,,,,,,,,,,,,,,
,,,,,900032,f,y,r,y,12,0,2025-04-03_13h01.10.119,VisualSearchFaces,2024.2.4,MacIntel,59.17159763,,,,,,,,550.7294,550.8286,550.8286,552.8274,block1,j,1,1,10,50,18,1,1,bottom_left,threatening,neutral,0.6012,,,,,,,,,,,,,,,,,
,,,,,900032,f,y,r,y,12,0,2025-04-03_13h01.10.119,VisualSearchFaces,2024.2.4,MacIntel,59.17159763,,,,,,,,553.8278,553.9424,553.9425,555.9418,block1,f,1,1,11,51,35,1,0,centre,threatening,no_target,0.5494,,,,,,,,,,,,,,,,,
,,,,,900032,f,y,r,y,12,0,2025-04-03_13h01.10.119,VisualSearchFaces,2024.2.4,MacIntel,59.17159763,,,,,,,,556.9417,557.0412,557.0412,559.0399,block1,f,1,1,12,52,23,1,0,bottom_left,neutral,no_target,0.7467,,,,,,,,,,,,,,,,,
,,,,,900032,f,y,r,y,12,0,2025-04-03_13h01.10.119,VisualSearchFaces,2024.2.4,MacIntel,59.17159763,,,,,,,,560.0394,560.1548,560.1549,562.1537,block1,j,1,1,13,53,0,1,1,centre,neutral,friendly,0.4687,,,,,,,,,,,,,,,,,
,,,,,900032,f,y,r,y,12,0,2025-04-03_13h01.10.119,VisualSearchFaces,2024.2.4,MacIntel,59.17159763,,,,,,,,563.1538,563.2702,563.2702,565.2684,block1,j,1,1,14,54,17,1,1,top_right,threatening,neutral,0.9997,,,,,,,,,,,,,,,,,
,,,,,900032,f,y,r,y,12,0,2025-04-03_13h01.10.119,VisualSearchFaces,2024.2.4,MacIntel,59.17159763,,,,,,,,566.2695,566.3843,566.3843,568.3832,block1,f,1,1,15,55,21,1,0,top_left,neutral,no_target,0.44,,,,,,,,,,,,,,,,,
,,,,,900032,f,y,r,y,12,0,2025-04-03_13h01.10.119,VisualSearchFaces,2024.2.4,MacIntel,59.17159763,,,,,,,,569.3839,569.4987,569.4987,571.4979,block1,j,1,1,16,56,12,1,1,top_right,friendly,neutral,0.456,,,,,,,,,,,,,,,,,
,,,,,900032,f,y,r,y,12,0,2025-04-03_13h01.10.119,VisualSearchFaces,2024.2.4,MacIntel,59.17159763,,,,,,,,572.4973,572.5977,572.5977,574.5961,block1,j,1,1,17,57,4,1,1,bottom_right,neutral,friendly,0.4499,,,,,,,,,,,,,,,,,
,,,,,900032,f,y,r,y,12,0,2025-04-03_13h01.10.119,VisualSearchFaces,2024.2.4,MacIntel,59.17159763,,,,,,,,575.5966,575.7113,575.7113,577.7106,block1,f,1,1,18,58,31,1,0,top_left,friendly,no_target,0.7002,,,,,,,,,,,,,,,,,
,,,,,900032,f,y,r,y,12,0,2025-04-03_13h01.10.119,VisualSearchFaces,2024.2.4,MacIntel,59.17159763,,,,,,,,578.7107,578.8264,578.8265,580.8254,block1,f,1,1,19,59,27,1,0,top_right,neutral,no_target,0.4849,,,,,,,,,,,,,,,,,
,,,,,900032,f,y,r,y,12,0,2025-04-03_13h01.10.119,VisualSearchFaces,2024.2.4,MacIntel,59.17159763,,,,,,,,581.8248,581.9242,581.9242,583.9226,block1,f,1,1,20,60,37,1,0,top_right,threatening,no_target,0.6169,,,,,,,,,,,,,,,,,
,,,,,900032,f,y,r,y,12,0,2025-04-03_13h01.10.119,VisualSearchFaces,2024.2.4,MacIntel,59.17159763,,,,,,,,584.9227,585.0221,585.0221,587.0205,block1,j,1,1,21,61,2,1,1,top_right,neutral,friendly,0.4833,,,,,,,,,,,,,,,,,
,,,,,900032,f,y,r,y,12,0,2025-04-03_13h01.10.119,VisualSearchFaces,2024.2.4,MacIntel,59.17159763,,,,,,,,588.021,588.1366,588.1366,590.1356,block1,j,1,1,22,62,15,1,1,centre,threatening,neutral,0.4683,,,,,,,,,,,,,,,,,
,,,,,900032,f,y,r,y,12,0,2025-04-03_13h01.10.119,VisualSearchFaces,2024.2.4,MacIntel,59.17159763,,,,,,,,591.1356,591.2347,591.2347,593.2337,block1,f,1,1,23,63,30,1,0,centre,friendly,no_target,0.75,,,,,,,,,,,,,,,,,
,,,,,900032,f,y,r,y,12,0,2025-04-03_13h01.10.119,VisualSearchFaces,2024.2.4,MacIntel,59.17159763,,,,,,,,594.2339,594.3501,594.3501,596.3479,block1,f,1,1,24,64,34,1,0,bottom_right,friendly,no_target,0.4995,,,,,,,,,,,,,,,,,
,,,,,900032,f,y,r,y,12,0,2025-04-03_13h01.10.119,VisualSearchFaces,2024.2.4,MacIntel,59.17159763,,,,,,,,597.3483,597.4635,597.4635,599.463,block1,f,1,1,25,65,20,1,0,centre,neutral,no_target,0.4671,,,,,,,,,,,,,,,,,
,,,,,900032,f,y,r,y,12,0,2025-04-03_13h01.10.119,VisualSearchFaces,2024.2.4,MacIntel,59.17159763,,,,,,,,600.4631,600.5623,600.5623,602.5609,block1,f,1,1,26,66,26,1,0,top_left,neutral,no_target,0.451,,,,,,,,,,,,,,,,,
,,,,,900032,f,y,r,y,12,0,2025-04-03_13h01.10.119,VisualSearchFaces,2024.2.4,MacIntel,59.17159763,,,,,,,,603.5604,603.6602,603.6602,605.658,block1,j,1,1,27,67,11,1,1,top_left,friendly,neutral,0.5207,,,,,,,,,,,,,,,,,
,,,,,900032,f,y,r,y,12,0,2025-04-03_13h01.10.119,VisualSearchFaces,2024.2.4,MacIntel,59.17159763,,,,,,,,606.6587,606.7748,606.7748,608.7732,block1,j,1,1,28,68,6,1,1,top_left,neutral,threatening,0.4877,,,,,,,,,,,,,,,,,
,,,,,900032,f,y,r,y,12,0,2025-04-03_13h01.10.119,VisualSearchFaces,2024.2.4,MacIntel,59.17159763,,,,,,,,609.7738,609.8888,609.8888,611.8879,block1,j,1,1,29,69,19,1,1,bottom_right,threatening,neutral,0.8677,,,,,,,,,,,,,,,,,
,,,,,900032,f,y,r,y,12,0,2025-04-03_13h01.10.119,VisualSearchFaces,2024.2.4,MacIntel,59.17159763,,,,,,,,612.8881,613.0037,613.0037,615.0026,block1,f,0,1,30,70,13,1,1,bottom_left,friendly,neutral,1.0656,,,,,,,,,,,,,,,,,
,,,,,900032,f,y,r,y,12,0,2025-04-03_13h01.10.119,VisualSearchFaces,2024.2.4,MacIntel,59.17159763,,,,,,,,616.0023,616.1181,616.1181,618.1167,block1,j,1,1,31,71,14,1,1,bottom_right,friendly,neutral,0.6223,,,,,,,,,,,,,,,,,
,,,,,900032,f,y,r,y,12,0,2025-04-03_13h01.10.119,VisualSearchFaces,2024.2.4,MacIntel,59.17159763,,,,,,,,619.1172,619.2164,619.2164,621.215,block1,j,1,1,32,72,3,1,1,bottom_left,neutral,friendly,0.4557,,,,,,,,,,,,,,,,,
,,,,,900032,f,y,r,y,12,0,2025-04-03_13h01.10.119,VisualSearchFaces,2024.2.4,MacIntel,59.17159763,,,,,,,,622.2146,622.3145,622.3146,624.3128,block1,j,1,1,33,73,8,1,1,bottom_left,neutral,threatening,0.4252,,,,,,,,,,,,,,,,,
,,,,,900032,f,y,r,y,12,0,2025-04-03_13h01.10.119,VisualSearchFaces,2024.2.4,MacIntel,59.17159763,,,,,,,,625.3125,625.4123,625.4123,627.4111,block1,f,1,1,34,74,39,1,0,bottom_right,threatening,no_target,0.555,,,,,,,,,,,,,,,,,
,,,,,900032,f,y,r,y,12,0,2025-04-03_13h01.10.119,VisualSearchFaces,2024.2.4,MacIntel,59.17159763,,,,,,,,628.4105,628.5268,628.5268,630.5258,block1,f,1,1,35,75,24,1,0,bottom_right,neutral,no_target,0.5577,,,,,,,,,,,,,,,,,
,,,,,900032,f,y,r,y,12,0,2025-04-03_13h01.10.119,VisualSearchFaces,2024.2.4,MacIntel,59.17159763,,,,,,,,631.5256,631.625,631.625,633.6236,block1,j,1,1,36,76,5,1,1,centre,neutral,threatening,0.4411,,,,,,,,,,,,,,,,,
,,,,,900032,f,y,r,y,12,0,2025-04-03_13h01.10.119,VisualSearchFaces,2024.2.4,MacIntel,59.17159763,,,,,,,,634.6233,634.739,634.739,636.7379,block1,j,1,1,37,77,16,1,1,top_left,threatening,neutral,0.4679,,,,,,,,,,,,,,,,,
,,,,,900032,f,y,r,y,12,0,2025-04-03_13h01.10.119,VisualSearchFaces,2024.2.4,MacIntel,59.17159763,,,,,,,,637.7392,637.8533,637.8533,639.8518,block1,f,1,1,38,78,32,1,0,top_right,friendly,no_target,0.5709,,,,,,,,,,,,,,,,,
,,,,,900032,f,y,r,y,12,0,2025-04-03_13h01.10.119,VisualSearchFaces,2024.2.4,MacIntel,59.17159763,,,,,,,,640.8519,640.968,640.968,642.9669,block1,j,1,1,39,79,9,1,1,bottom_right,neutral,threatening,0.5254,,,,,,,,,,,,,,,,,
,,,,,900032,f,y,r,y,12,0,2025-04-03_13h01.10.119,VisualSearchFaces,2024.2.4,MacIntel,59.17159763,,,650.2479,652.9434,space,2.677,,653.9436,654.0436,654.0436,656.0421,block2,f,1,0,0,0,27,1,0,top_right,neutral,no_target,0.6827,,642.968,650.2463,space,7.2564,,,,,,,,,,,,
,,,,,900032,f,y,r,y,12,0,2025-04-03_13h01.10.119,VisualSearchFaces,2024.2.4,MacIntel,59.17159763,,,,,,,,657.0414,657.1413,657.1414,659.1399,block2,j,1,0,1,1,3,1,1,bottom_left,neutral,friendly,0.5036,,,,,,,,,,,,,,,,,
,,,,,900032,f,y,r,y,12,0,2025-04-03_13h01.10.119,VisualSearchFaces,2024.2.4,MacIntel,59.17159763,,,,,,,,660.1408,660.2561,660.2562,662.2547,block2,j,1,0,2,2,10,1,1,centre,friendly,neutral,0.9158,,,,,,,,,,,,,,,,,
,,,,,900032,f,y,r,y,12,0,2025-04-03_13h01.10.119,VisualSearchFaces,2024.2.4,MacIntel,59.17159763,,,,,,,,663.2547,663.3707,663.3707,665.369,block2,j,1,0,3,3,8,1,1,bottom_left,neutral,threatening,0.5018,,,,,,,,,,,,,,,,,
,,,,,900032,f,y,r,y,12,0,2025-04-03_13h01.10.119,VisualSearchFaces,2024.2.4,MacIntel,59.17159763,,,,,,,,666.3689,666.4851,666.4851,668.4836,block2,f,1,0,4,4,23,1,0,bottom_left,neutral,no_target,0.3922,,,,,,,,,,,,,,,,,
,,,,,900032,f,y,r,y,12,0,2025-04-03_13h01.10.119,VisualSearchFaces,2024.2.4,MacIntel,59.17159763,,,,,,,,669.4832,669.5833,669.5833,671.5814,block2,j,1,0,5,5,13,1,1,bottom_left,friendly,neutral,0.2647,,,,,,,,,,,,,,,,,
,,,,,900032,f,y,r,y,12,0,2025-04-03_13h01.10.119,VisualSearchFaces,2024.2.4,MacIntel,59.17159763,,,,,,,,672.5818,672.6811,672.6812,674.6799,block2,j,1,0,6,6,19,1,1,bottom_right,threatening,neutral,0.3404,,,,,,,,,,,,,,,,,
,,,,,900032,f,y,r,y,12,0,2025-04-03_13h01.10.119,VisualSearchFaces,2024.2.4,MacIntel,59.17159763,,,,,,,,675.6795,675.7954,675.7955,677.7944,block2,j,1,0,7,7,15,1,1,centre,threatening,neutral,0.3994,,,,,,,,,,,,,,,,,
,,,,,900032,f,y,r,y,12,0,2025-04-03_13h01.10.119,VisualSearchFaces,2024.2.4,MacIntel,59.17159763,,,,,,,,678.7943,678.9097,678.9097,680.9085,block2,f,1,0,8,8,22,1,0,top_right,neutral,no_target,0.4228,,,,,,,,,,,,,,,,,
,,,,,900032,f,y,r,y,12,0,2025-04-03_13h01.10.119,VisualSearchFaces,2024.2.4,MacIntel,59.17159763,,,,,,,,681.9088,682.0251,682.0252,684.0231,block2,f,1,0,9,9,25,1,0,centre,neutral,no_target,0.2658,,,,,,,,,,,,,,,,,
,,,,,900032,f,y,r,y,12,0,2025-04-03_13h01.10.119,VisualSearchFaces,2024.2.4,MacIntel,59.17159763,,,,,,,,685.0236,685.1227,685.1227,687.1216,block2,j,1,0,10,10,1,1,1,top_left,neutral,friendly,0.4034,,,,,,,,,,,,,,,,,
,,,,,900032,f,y,r,y,12,0,2025-04-03_13h01.10.119,VisualSearchFaces,2024.2.4,MacIntel,59.17159763,,,,,,,,688.1211,688.237,688.237,690.2361,block2,f,1,0,11,11,28,1,0,bottom_left,neutral,no_target,0.4841,,,,,,,,,,,,,,,,,
,,,,,900032,f,y,r,y,12,0,2025-04-03_13h01.10.119,VisualSearchFaces,2024.2.4,MacIntel,59.17159763,,,,,,,,691.2352,691.3523,691.3523,693.3509,block2,j,1,0,12,12,17,1,1,top_right,threatening,neutral,0.41,,,,,,,,,,,,,,,,,
,,,,,900032,f,y,r,y,12,0,2025-04-03_13h01.10.119,VisualSearchFaces,2024.2.4,MacIntel,59.17159763,,,,,,,,694.3505,694.45,694.45,696.4483,block2,j,1,0,13,13,18,1,1,bottom_left,threatening,neutral,0.5576,,,,,,,,,,,,,,,,,
,,,,,900032,f,y,r,y,12,0,2025-04-03_13h01.10.119,VisualSearchFaces,2024.2.4,MacIntel,59.17159763,,,,,,,,697.4488,697.5638,697.5638,699.5627,block2,f,1,0,14,14,32,1,0,top_right,friendly,no_target,0.6575,,,,,,,,,,,,,,,,,
,,,,,900032,f,y,r,y,12,0,2025-04-03_13h01.10.119,VisualSearchFaces,2024.2.4,MacIntel,59.17159763,,,,,,,,700.5634,700.6786,700.6786,702.678,block2,j,1,0,15,15,9,1,1,bottom_right,neutral,threatening,0.4995,,,,,,,,,,,,,,,,,
,,,,,900032,f,y,r,y,12,0,2025-04-03_13h01.10.119,VisualSearchFaces,2024.2.4,MacIntel,59.17159763,,,,,,,,703.677,703.7765,703.7765,705.7752,block2,f,1,0,16,16,34,1,0,bottom_right,friendly,no_target,0.5373,,,,,,,,,,,,,,,,,
,,,,,900032,f,y,r,y,12,0,2025-04-03_13h01.10.119,VisualSearchFaces,2024.2.4,MacIntel,59.17159763,,,,,,,,706.7752,706.891,706.891,708.8901,block2,f,1,0,17,17,20,1,0,centre,neutral,no_target,1.1189,,,,,,,,,,,,,,,,,
,,,,,900032,f,y,r,y,12,0,2025-04-03_13h01.10.119,VisualSearchFaces,2024.2.4,MacIntel,59.17159763,,,,,,,,709.8903,709.9898,709.9898,711.9883,block2,f,1,0,18,18,38,1,0,bottom_left,threatening,no_target,0.701,,,,,,,,,,,,,,,,,
,,,,,900032,f,y,r,y,12,0,2025-04-03_13h01.10.119,VisualSearchFaces,2024.2.4,MacIntel,59.17159763,,,,,,,,712.9892,713.0878,713.0878,715.0864,block2,j,1,0,19,19,5,1,1,centre,neutral,threatening,0.4873,,,,,,,,,,,,,,,,,
,,,,,900032,f,y,r,y,12,0,2025-04-03_13h01.10.119,VisualSearchFaces,2024.2.4,MacIntel,59.17159763,,,,,,,,716.087,716.2016,716.2016,718.2002,block2,j,1,0,20,20,2,1,1,top_right,neutral,friendly,0.4089,,,,,,,,,,,,,,,,,
,,,,,900032,f,y,r,y,12,0,2025-04-03_13h01.10.119,VisualSearchFaces,2024.2.4,MacIntel,59.17159763,,,,,,,,719.2008,719.3004,719.3004,721.298,block2,f,1,0,21,21,30,1,0,centre,friendly,no_target,0.5368,,,,,,,,,,,,,,,,,
,,,,,900032,f,y,r,y,12,0,2025-04-03_13h01.10.119,VisualSearchFaces,2024.2.4,MacIntel,59.17159763,,,,,,,,722.2991,722.414,722.414,724.4127,block2,f,1,0,22,22,31,1,0,top_left,friendly,no_target,0.6538,,,,,,,,,,,,,,,,,
,,,,,900032,f,y,r,y,12,0,2025-04-03_13h01.10.119,VisualSearchFaces,2024.2.4,MacIntel,59.17159763,,,,,,,,725.4136,725.5129,725.5129,727.5112,block2,f,1,0,23,23,26,1,0,top_left,neutral,no_target,0.4148,,,,,,,,,,,,,,,,,
,,,,,900032,f,y,r,y,12,0,2025-04-03_13h01.10.119,VisualSearchFaces,2024.2.4,MacIntel,59.17159763,,,,,,,,728.5109,728.6105,728.6106,730.6096,block2,f,1,0,24,24,24,1,0,bottom_right,neutral,no_target,0.3345,,,,,,,,,,,,,,,,,
,,,,,900032,f,y,r,y,12,0,2025-04-03_13h01.10.119,VisualSearchFaces,2024.2.4,MacIntel,59.17159763,,,,,,,,731.6095,731.7248,731.7249,733.724,block2,j,1,0,25,25,11,1,1,top_left,friendly,neutral,0.4155,,,,,,,,,,,,,,,,,
,,,,,900032,f,y,r,y,12,0,2025-04-03_13h01.10.119,VisualSearchFaces,2024.2.4,MacIntel,59.17159763,,,,,,,,734.7252,734.8396,734.8396,736.8379,block2,j,1,0,26,26,4,1,1,bottom_right,neutral,friendly,0.404,,,,,,,,,,,,,,,,,
,,,,,900032,f,y,r,y,12,0,2025-04-03_13h01.10.119,VisualSearchFaces,2024.2.4,MacIntel,59.17159763,,,,,,,,737.839,737.954,737.954,739.9525,block2,j,1,0,27,27,7,1,1,top_right,neutral,threatening,0.3865,,,,,,,,,,,,,,,,,
,,,,,900032,f,y,r,y,12,0,2025-04-03_13h01.10.119,VisualSearchFaces,2024.2.4,MacIntel,59.17159763,,,,,,,,740.9528,741.0526,741.0526,743.051,block2,f,1,0,28,28,35,1,0,centre,threatening,no_target,0.5634,,,,,,,,,,,,,,,,,
,,,,,900032,f,y,r,y,12,0,2025-04-03_13h01.10.119,VisualSearchFaces,2024.2.4,MacIntel,59.17159763,,,,,,,,744.0502,744.1498,744.1498,746.1494,block2,j,1,0,29,29,16,1,1,top_left,threatening,neutral,1.6353,,,,,,,,,,,,,,,,,
,,,,,900032,f,y,r,y,12,0,2025-04-03_13h01.10.119,VisualSearchFaces,2024.2.4,MacIntel,59.17159763,,,,,,,,747.1487,747.248,747.248,749.2465,block2,j,1,0,30,30,12,1,1,top_right,friendly,neutral,0.7347,,,,,,,,,,,,,,,,,
,,,,,900032,f,y,r,y,12,0,2025-04-03_13h01.10.119,VisualSearchFaces,2024.2.4,MacIntel,59.17159763,,,,,,,,750.2472,750.3463,750.3464,752.3442,block2,f,1,0,31,31,21,1,0,top_left,neutral,no_target,0.6001,,,,,,,,,,,,,,,,,
,,,,,900032,f,y,r,y,12,0,2025-04-03_13h01.10.119,VisualSearchFaces,2024.2.4,MacIntel,59.17159763,,,,,,,,753.3451,753.4603,753.4603,755.4588,block2,f,1,0,32,32,37,1,0,top_right,threatening,no_target,0.4874,,,,,,,,,,,,,,,,,
,,,,,900032,f,y,r,y,12,0,2025-04-03_13h01.10.119,VisualSearchFaces,2024.2.4,MacIntel,59.17159763,,,,,,,,756.4589,756.5748,756.5748,758.5733,block2,f,1,0,33,33,36,1,0,top_left,threatening,no_target,0.5996,,,,,,,,,,,,,,,,,
,,,,,900032,f,y,r,y,12,0,2025-04-03_13h01.10.119,VisualSearchFaces,2024.2.4,MacIntel,59.17159763,,,,,,,,759.5735,759.6734,759.6734,761.6711,block2,f,1,0,34,34,39,1,0,bottom_right,threatening,no_target,0.5352,,,,,,,,,,,,,,,,,
,,,,,900032,f,y,r,y,12,0,2025-04-03_13h01.10.119,VisualSearchFaces,2024.2.4,MacIntel,59.17159763,,,,,,,,762.6714,762.7709,762.771,764.7698,block2,f,1,0,35,35,29,1,0,bottom_right,neutral,no_target,0.419,,,,,,,,,,,,,,,,,
,,,,,900032,f,y,r,y,12,0,2025-04-03_13h01.10.119,VisualSearchFaces,2024.2.4,MacIntel,59.17159763,,,,,,,,765.7697,765.8864,765.8864,767.8838,block2,j,1,0,36,36,14,1,1,bottom_right,friendly,neutral,0.433,,,,,,,,,,,,,,,,,
,,,,,900032,f,y,r,y,12,0,2025-04-03_13h01.10.119,VisualSearchFaces,2024.2.4,MacIntel,59.17159763,,,,,,,,768.8848,769.0006,769.0006,770.9985,block2,f,1,0,37,37,33,1,0,bottom_left,friendly,no_target,0.5173,,,,,,,,,,,,,,,,,
,,,,,900032,f,y,r,y,12,0,2025-04-03_13h01.10.119,VisualSearchFaces,2024.2.4,MacIntel,59.17159763,,,,,,,,771.9997,772.098,772.098,774.097,block2,j,1,0,38,38,0,1,1,centre,neutral,friendly,0.4019,,,,,,,,,,,,,,,,,
,,,,,900032,f,y,r,y,12,0,2025-04-03_13h01.10.119,VisualSearchFaces,2024.2.4,MacIntel,59.17159763,,,,,,,,775.0979,775.2128,775.2128,777.2114,block2,j,1,0,39,39,6,1,1,top_left,neutral,threatening,0.4196,,,,,,,,,,,,,,,,,
,,,,,900032,f,y,r,y,12,0,2025-04-03_13h01.10.119,VisualSearchFaces,2024.2.4,MacIntel,59.17159763,,,,,,,,778.212,778.3113,778.3114,780.3099,block2,j,1,1,0,40,8,1,1,bottom_left,neutral,threatening,0.6039,,,,,,,,,,,,,,,,,
,,,,,900032,f,y,r,y,12,0,2025-04-03_13h01.10.119,VisualSearchFaces,2024.2.4,MacIntel,59.17159763,,,,,,,,781.3093,781.4087,781.4087,783.4075,block2,f,1,1,1,41,32,1,0,top_right,friendly,no_target,0.4567,,,,,,,,,,,,,,,,,
,,,,,900032,f,y,r,y,12,0,2025-04-03_13h01.10.119,VisualSearchFaces,2024.2.4,MacIntel,59.17159763,,,,,,,,784.4077,784.5237,784.5237,786.5214,block2,f,1,1,2,42,38,1,0,bottom_left,threatening,no_target,0.9585,,,,,,,,,,,,,,,,,
,,,,,900032,f,y,r,y,12,0,2025-04-03_13h01.10.119,VisualSearchFaces,2024.2.4,MacIntel,59.17159763,,,,,,,,787.522,787.6382,787.6382,789.6365,block2,f,1,1,3,43,35,1,0,centre,threatening,no_target,0.45,,,,,,,,,,,,,,,,,
,,,,,900032,f,y,r,y,12,0,2025-04-03_13h01.10.119,VisualSearchFaces,2024.2.4,MacIntel,59.17159763,,,,,,,,790.6368,790.7362,790.7362,792.7339,block2,f,1,1,4,44,26,1,0,top_left,neutral,no_target,0.55,,,,,,,,,,,,,,,,,
,,,,,900032,f,y,r,y,12,0,2025-04-03_13h01.10.119,VisualSearchFaces,2024.2.4,MacIntel,59.17159763,,,,,,,,793.7345,793.8503,793.8503,795.8494,block2,j,1,1,5,45,0,1,1,centre,neutral,friendly,0.3572,,,,,,,,,,,,,,,,,
,,,,,900032,f,y,r,y,12,0,2025-04-03_13h01.10.119,VisualSearchFaces,2024.2.4,MacIntel,59.17159763,,,,,,,,796.849,796.9484,796.9484,798.9472,block2,f,1,1,6,46,29,1,0,bottom_right,neutral,no_target,0.3832,,,,,,,,,,,,,,,,,
,,,,,900032,f,y,r,y,12,0,2025-04-03_13h01.10.119,VisualSearchFaces,2024.2.4,MacIntel,59.17159763,,,,,,,,799.9477,800.0634,800.0634,802.062,block2,f,1,1,7,47,33,1,0,bottom_left,friendly,no_target,0.5501,,,,,,,,,,,,,,,,,
,,,,,900032,f,y,r,y,12,0,2025-04-03_13h01.10.119,VisualSearchFaces,2024.2.4,MacIntel,59.17159763,,,,,,,,803.0621,803.1613,803.1613,805.1597,block2,j,1,1,8,48,3,1,1,bottom_left,neutral,friendly,0.583,,,,,,,,,,,,,,,,,
,,,,,900032,f,y,r,y,12,0,2025-04-03_13h01.10.119,VisualSearchFaces,2024.2.4,MacIntel,59.17159763,,,,,,,,806.1592,806.2754,806.2754,808.2735,block2,f,1,1,9,49,25,1,0,centre,neutral,no_target,0.3608,,,,,,,,,,,,,,,,,
,,,,,900032,f,y,r,y,12,0,2025-04-03_13h01.10.119,VisualSearchFaces,2024.2.4,MacIntel,59.17159763,,,,,,,,809.2749,809.3896,809.3896,811.3882,block2,j,1,1,10,50,5,1,1,centre,neutral,threatening,0.3722,,,,,,,,,,,,,,,,,
,,,,,900032,f,y,r,y,12,0,2025-04-03_13h01.10.119,VisualSearchFaces,2024.2.4,MacIntel,59.17159763,,,,,,,,812.3886,812.5042,812.5042,814.5041,block2,j,1,1,11,51,7,1,1,top_right,neutral,threatening,0.4544,,,,,,,,,,,,,,,,,
,,,,,900032,f,y,r,y,12,0,2025-04-03_13h01.10.119,VisualSearchFaces,2024.2.4,MacIntel,59.17159763,,,,,,,,815.5031,815.6188,815.6188,817.6178,block2,f,1,1,12,52,34,1,0,bottom_right,friendly,no_target,0.5365,,,,,,,,,,,,,,,,,
,,,,,900032,f,y,r,y,12,0,2025-04-03_13h01.10.119,VisualSearchFaces,2024.2.4,MacIntel,59.17159763,,,,,,,,818.618,818.7344,818.7345,820.7331,block2,j,1,1,13,53,13,1,1,bottom_left,friendly,neutral,0.4261,,,,,,,,,,,,,,,,,
,,,,,900032,f,y,r,y,12,0,2025-04-03_13h01.10.119,VisualSearchFaces,2024.2.4,MacIntel,59.17159763,,,,,,,,821.7334,821.8484,821.8484,823.8473,block2,f,1,1,14,54,36,1,0,top_left,threatening,no_target,0.5105,,,,,,,,,,,,,,,,,
,,,,,900032,f,y,r,y,12,0,2025-04-03_13h01.10.119,VisualSearchFaces,2024.2.4,MacIntel,59.17159763,,,,,,,,824.8476,824.9636,824.9636,826.9622,block2,j,1,1,15,55,10,1,1,centre,friendly,neutral,0.4163,,,,,,,,,,,,,,,,,
,,,,,900032,f,y,r,y,12,0,2025-04-03_13h01.10.119,VisualSearchFaces,2024.2.4,MacIntel,59.17159763,,,,,,,,827.9621,828.0773,828.0773,830.076,block2,j,1,1,16,56,11,1,1,top_left,friendly,neutral,0.5161,,,,,,,,,,,,,,,,,
,,,,,900032,f,y,r,y,12,0,2025-04-03_13h01.10.119,VisualSearchFaces,2024.2.4,MacIntel,59.17159763,,,,,,,,831.0775,831.1926,831.1926,833.1912,block2,j,1,1,17,57,1,1,1,top_left,neutral,friendly,0.4318,,,,,,,,,,,,,,,,,
,,,,,900032,f,y,r,y,12,0,2025-04-03_13h01.10.119,VisualSearchFaces,2024.2.4,MacIntel,59.17159763,,,,,,,,834.1919,834.3065,834.3065,836.3058,block2,j,1,1,18,58,2,1,1,top_right,neutral,friendly,0.4532,,,,,,,,,,,,,,,,,
,,,,,900032,f,y,r,y,12,0,2025-04-03_13h01.10.119,VisualSearchFaces,2024.2.4,MacIntel,59.17159763,,,,,,,,837.307,837.4211,837.4212,839.4208,block2,j,1,1,19,59,6,1,1,top_left,neutral,threatening,0.4261,,,,,,,,,,,,,,,,,
,,,,,900032,f,y,r,y,12,0,2025-04-03_13h01.10.119,VisualSearchFaces,2024.2.4,MacIntel,59.17159763,,,,,,,,840.4199,840.5198,840.5198,842.5185,block2,j,1,1,20,60,14,1,1,bottom_right,friendly,neutral,0.3574,,,,,,,,,,,,,,,,,
,,,,,900032,f,y,r,y,12,0,2025-04-03_13h01.10.119,VisualSearchFaces,2024.2.4,MacIntel,59.17159763,,,,,,,,843.5193,843.6337,843.6338,845.6328,block2,j,1,1,21,61,4,1,1,bottom_right,neutral,friendly,0.3341,,,,,,,,,,,,,,,,,
,,,,,900032,f,y,r,y,12,0,2025-04-03_13h01.10.119,VisualSearchFaces,2024.2.4,MacIntel,59.17159763,,,,,,,,846.6334,846.7488,846.7488,848.7473,block2,j,1,1,22,62,9,1,1,bottom_right,neutral,threatening,0.3831,,,,,,,,,,,,,,,,,
,,,,,900032,f,y,r,y,12,0,2025-04-03_13h01.10.119,VisualSearchFaces,2024.2.4,MacIntel,59.17159763,,,,,,,,849.7486,849.8636,849.8636,851.8633,block2,j,1,1,23,63,17,1,1,top_right,threatening,neutral,0.4189,,,,,,,,,,,,,,,,,
,,,,,900032,f,y,r,y,12,0,2025-04-03_13h01.10.119,VisualSearchFaces,2024.2.4,MacIntel,59.17159763,,,,,,,,852.8618,852.9779,852.978,854.9764,block2,j,1,1,24,64,15,1,1,centre,threatening,neutral,0.4181,,,,,,,,,,,,,,,,,
,,,,,900032,f,y,r,y,12,0,2025-04-03_13h01.10.119,VisualSearchFaces,2024.2.4,MacIntel,59.17159763,,,,,,,,855.9778,856.0931,856.0931,858.0917,block2,f,1,1,25,65,30,1,0,centre,friendly,no_target,0.6896,,,,,,,,,,,,,,,,,
,,,,,900032,f,y,r,y,12,0,2025-04-03_13h01.10.119,VisualSearchFaces,2024.2.4,MacIntel,59.17159763,,,,,,,,859.0911,859.1913,859.1913,861.1884,block2,j,1,1,26,66,18,1,1,bottom_left,threatening,neutral,0.5155,,,,,,,,,,,,,,,,,
,,,,,900032,f,y,r,y,12,0,2025-04-03_13h01.10.119,VisualSearchFaces,2024.2.4,MacIntel,59.17159763,,,,,,,,862.1892,862.2886,862.2886,864.2874,block2,j,1,1,27,67,19,1,1,bottom_right,threatening,neutral,0.4082,,,,,,,,,,,,,,,,,
,,,,,900032,f,y,r,y,12,0,2025-04-03_13h01.10.119,VisualSearchFaces,2024.2.4,MacIntel,59.17159763,,,,,,,,865.2875,865.3867,865.3867,867.385,block2,f,1,1,28,68,20,1,0,centre,neutral,no_target,0.4656,,,,,,,,,,,,,,,,,
,,,,,900032,f,y,r,y,12,0,2025-04-03_13h01.10.119,VisualSearchFaces,2024.2.4,MacIntel,59.17159763,,,,,,,,868.3854,868.5003,868.5003,870.499,block2,f,1,1,29,69,23,1,0,bottom_left,neutral,no_target,0.4354,,,,,,,,,,,,,,,,,
,,,,,900032,f,y,r,y,12,0,2025-04-03_13h01.10.119,VisualSearchFaces,2024.2.4,MacIntel,59.17159763,,,,,,,,871.4996,871.6161,871.6161,873.6137,block2,j,1,1,30,70,16,1,1,top_left,threatening,neutral,0.4531,,,,,,,,,,,,,,,,,
,,,,,900032,f,y,r,y,12,0,2025-04-03_13h01.10.119,VisualSearchFaces,2024.2.4,MacIntel,59.17159763,,,,,,,,874.6142,874.7299,874.7299,876.7287,block2,f,1,1,31,71,21,1,0,top_left,neutral,no_target,0.5508,,,,,,,,,,,,,,,,,
,,,,,900032,f,y,r,y,12,0,2025-04-03_13h01.10.119,VisualSearchFaces,2024.2.4,MacIntel,59.17159763,,,,,,,,877.729,877.8288,877.8288,879.8263,block2,f,1,1,32,72,24,1,0,bottom_right,neutral,no_target,0.3176,,,,,,,,,,,,,,,,,
,,,,,900032,f,y,r,y,12,0,2025-04-03_13h01.10.119,VisualSearchFaces,2024.2.4,MacIntel,59.17159763,,,,,,,,880.8273,880.943,880.943,882.9417,block2,f,1,1,33,73,22,1,0,top_right,neutral,no_target,0.3637,,,,,,,,,,,,,,,,,
,,,,,900032,f,y,r,y,12,0,2025-04-03_13h01.10.119,VisualSearchFaces,2024.2.4,MacIntel,59.17159763,,,,,,,,883.9424,884.0572,884.0573,886.0563,block2,j,1,1,34,74,12,1,1,top_right,friendly,neutral,0.4884,,,,,,,,,,,,,,,,,
,,,,,900032,f,y,r,y,12,0,2025-04-03_13h01.10.119,VisualSearchFaces,2024.2.4,MacIntel,59.17159763,,,,,,,,887.0558,887.1549,887.1549,889.1536,block2,f,1,1,35,75,27,1,0,top_right,neutral,no_target,0.4218,,,,,,,,,,,,,,,,,
,,,,,900032,f,y,r,y,12,0,2025-04-03_13h01.10.119,VisualSearchFaces,2024.2.4,MacIntel,59.17159763,,,,,,,,890.1549,890.2692,890.2693,892.2685,block2,f,1,1,36,76,37,1,0,top_right,threatening,no_target,0.7101,,,,,,,,,,,,,,,,,
,,,,,900032,f,y,r,y,12,0,2025-04-03_13h01.10.119,VisualSearchFaces,2024.2.4,MacIntel,59.17159763,,,,,,,,893.2686,893.3679,893.3679,895.3664,block2,f,1,1,37,77,28,1,0,bottom_left,neutral,no_target,0.4241,,,,,,,,,,,,,,,,,
,,,,,900032,f,y,r,y,12,0,2025-04-03_13h01.10.119,VisualSearchFaces,2024.2.4,MacIntel,59.17159763,,,,,,,,896.3667,896.4661,896.4661,898.4646,block2,f,1,1,38,78,31,1,0,top_left,friendly,no_target,0.654,,,,,,,,,,,,,,,,,
,,,,,900032,f,y,r,y,12,0,2025-04-03_13h01.10.119,VisualSearchFaces,2024.2.4,MacIntel,59.17159763,,,,,,,,899.4637,899.5799,899.5799,901.579,block2,f,1,1,39,79,39,1,0,bottom_right,threatening,no_target,0.4354,,,,,,,,,,,,,,,,,
,,,,,900032,f,y,r,y,12,0,2025-04-03_13h01.10.119,VisualSearchFaces,2024.2.4,MacIntel,59.17159763,,,904.6292,906.4268,space,1.7838,,907.4274,907.5418,907.5419,909.5406,block3,j,1,0,0,0,5,1,1,centre,neutral,threatening,0.5557,,901.5801,904.6275,space,3.0309,,,,,,,,,,,,
,,,,,900032,f,y,r,y,12,0,2025-04-03_13h01.10.119,VisualSearchFaces,2024.2.4,MacIntel,59.17159763,,,,,,,,910.5408,910.6565,910.6565,912.6547,block3,j,1,0,1,1,16,1,1,top_left,threatening,neutral,0.4665,,,,,,,,,,,,,,,,,
,,,,,900032,f,y,r,y,12,0,2025-04-03_13h01.10.119,VisualSearchFaces,2024.2.4,MacIntel,59.17159763,,,,,,,,913.6556,913.7709,913.771,915.7696,block3,f,1,0,2,2,36,1,0,top_left,threatening,no_target,0.536,,,,,,,,,,,,,,,,,
,,,,,900032,f,y,r,y,12,0,2025-04-03_13h01.10.119,VisualSearchFaces,2024.2.4,MacIntel,59.17159763,,,,,,,,916.7694,916.8687,916.8687,918.8681,block3,f,1,0,3,3,25,1,0,centre,neutral,no_target,0.4219,,,,,,,,,,,,,,,,,
,,,,,900032,f,y,r,y,12,0,2025-04-03_13h01.10.119,VisualSearchFaces,2024.2.4,MacIntel,59.17159763,,,,,,,,919.8671,919.9664,919.9665,921.9659,block3,f,1,0,4,4,33,1,0,bottom_left,friendly,no_target,0.6074,,,,,,,,,,,,,,,,,
,,,,,900032,f,y,r,y,12,0,2025-04-03_13h01.10.119,VisualSearchFaces,2024.2.4,MacIntel,59.17159763,,,,,,,,922.9657,923.0818,923.0818,925.0794,block3,j,1,0,5,5,18,1,1,bottom_left,threatening,neutral,1.0599,,,,,,,,,,,,,,,,,
,,,,,900032,f,y,r,y,12,0,2025-04-03_13h01.10.119,VisualSearchFaces,2024.2.4,MacIntel,59.17159763,,,,,,,,926.0804,926.1965,926.1965,928.1949,block3,j,1,0,6,6,11,1,1,top_left,friendly,neutral,0.6062,,,,,,,,,,,,,,,,,
,,,,,900032,f,y,r,y,12,0,2025-04-03_13h01.10.119,VisualSearchFaces,2024.2.4,MacIntel,59.17159763,,,,,,,,929.1952,929.3102,929.3102,931.3098,block3,f,1,0,7,7,32,1,0,top_right,friendly,no_target,0.8207,,,,,,,,,,,,,,,,,
,,,,,900032,f,y,r,y,12,0,2025-04-03_13h01.10.119,VisualSearchFaces,2024.2.4,MacIntel,59.17159763,,,,,,,,932.3099,932.4248,932.4248,934.4235,block3,f,1,0,8,8,27,1,0,top_right,neutral,no_target,0.4843,,,,,,,,,,,,,,,,,
,,,,,900032,f,y,r,y,12,0,2025-04-03_13h01.10.119,VisualSearchFaces,2024.2.4,MacIntel,59.17159763,,,,,,,,935.425,935.5401,935.5401,937.538,block3,f,1,0,9,9,26,1,0,top_left,neutral,no_target,0.4076,,,,,,,,,,,,,,,,,
,,,,,900032,f,y,r,y,12,0,2025-04-03_13h01.10.119,VisualSearchFaces,2024.2.4,MacIntel,59.17159763,,,,,,,,938.5388,938.654,938.6541,940.6526,block3,j,1,0,10,10,7,1,1,top_right,neutral,threatening,0.4195,,,,,,,,,,,,,,,,,
,,,,,900032,f,y,r,y,12,0,2025-04-03_13h01.10.119,VisualSearchFaces,2024.2.4,MacIntel,59.17159763,,,,,,,,941.6538,941.753,941.7531,943.7506,block3,j,1,0,11,11,12,1,1,top_right,friendly,neutral,0.4316,,,,,,,,,,,,,,,,,
,,,,,900032,f,y,r,y,12,0,2025-04-03_13h01.10.119,VisualSearchFaces,2024.2.4,MacIntel,59.17159763,,,,,,,,944.7525,944.8675,944.8675,946.8661,block3,j,1,0,12,12,4,1,1,bottom_right,neutral,friendly,0.4677,,,,,,,,,,,,,,,,,
,,,,,900032,f,y,r,y,12,0,2025-04-03_13h01.10.119,VisualSearchFaces,2024.2.4,MacIntel,59.17159763,,,,,,,,947.8667,947.9815,947.9815,949.9796,block3,j,1,0,13,13,3,1,1,bottom_left,neutral,friendly,0.6178,,,,,,,,,,,,,,,,,
,,,,,900032,f,y,r,y,12,0,2025-04-03_13h01.10.119,VisualSearchFaces,2024.2.4,MacIntel,59.17159763,,,,,,,,950.981,951.0964,951.0965,953.0952,block3,j,1,0,14,14,0,1,1,centre,neutral,friendly,0.4371,,,,,,,,,,,,,,,,,
,,,,,900032,f,y,r,y,12,0,2025-04-03_13h01.10.119,VisualSearchFaces,2024.2.4,MacIntel,59.17159763,,,,,,,,954.0965,954.2107,954.2107,956.2095,block3,f,1,0,15,15,31,1,0,top_left,friendly,no_target,0.6498,,,,,,,,,,,,,,,,,
,,,,,900032,f,y,r,y,12,0,2025-04-03_13h01.10.119,VisualSearchFaces,2024.2.4,MacIntel,59.17159763,,,,,,,,957.2093,957.3254,957.3255,959.3236,block3,j,1,0,16,16,6,1,1,top_left,neutral,threatening,0.4843,,,,,,,,,,,,,,,,,
,,,,,900032,f,y,r,y,12,0,2025-04-03_13h01.10.119,VisualSearchFaces,2024.2.4,MacIntel,59.17159763,,,,,,,,960.3245,960.4407,960.4407,962.4388,block3,j,1,0,17,17,9,1,1,bottom_right,neutral,threatening,0.3337,,,,,,,,,,,,,,,,,
,,,,,900032,f,y,r,y,12,0,2025-04-03_13h01.10.119,VisualSearchFaces,2024.2.4,MacIntel,59.17159763,,,,,,,,963.439,963.5541,963.5542,965.5531,block3,j,1,0,18,18,1,1,1,top_left,neutral,friendly,0.5357,,,,,,,,,,,,,,,,,
,,,,,900032,f,y,r,y,12,0,2025-04-03_13h01.10.119,VisualSearchFaces,2024.2.4,MacIntel,59.17159763,,,,,,,,966.5541,966.67,966.67,968.668,block3,f,1,0,19,19,39,1,0,bottom_right,threatening,no_target,0.6337,,,,,,,,,,,,,,,,,
,,,,,900032,f,y,r,y,12,0,2025-04-03_13h01.10.119,VisualSearchFaces,2024.2.4,MacIntel,59.17159763,,,,,,,,969.6679,969.7673,969.7674,971.766,block3,f,1,0,20,20,37,1,0,top_right,threatening,no_target,0.656,,,,,,,,,,,,,,,,,
,,,,,900032,f,y,r,y,12,0,2025-04-03_13h01.10.119,VisualSearchFaces,2024.2.4,MacIntel,59.17159763,,,,,,,,972.7664,972.8812,972.8812,974.8802,block3,j,1,0,21,21,19,1,1,bottom_right,threatening,neutral,0.4669,,,,,,,,,,,,,,,,,
,,,,,900032,f,y,r,y,12,0,2025-04-03_13h01.10.119,VisualSearchFaces,2024.2.4,MacIntel,59.17159763,,,,,,,,975.8807,975.9965,975.9966,977.9948,block3,j,1,0,22,22,2,1,1,top_right,neutral,friendly,0.4162,,,,,,,,,,,,,,,,,
,,,,,900032,f,y,r,y,12,0,2025-04-03_13h01.10.119,VisualSearchFaces,2024.2.4,MacIntel,59.17159763,,,,,,,,978.9947,979.0941,979.0941,981.0927,block3,f,1,0,23,23,21,1,0,top_left,neutral,no_target,0.5366,,,,,,,,,,,,,,,,,
,,,,,900032,f,y,r,y,12,0,2025-04-03_13h01.10.119,VisualSearchFaces,2024.2.4,MacIntel,59.17159763,,,,,,,,982.0925,982.1923,982.1923,984.191,block3,f,1,0,24,24,34,1,0,bottom_right,friendly,no_target,0.4489,,,,,,,,,,,,,,,,,
,,,,,900032,f,y,r,y,12,0,2025-04-03_13h01.10.119,VisualSearchFaces,2024.2.4,MacIntel,59.17159763,,,,,,,,985.191,985.3073,985.3074,987.3055,block3,j,1,0,25,25,14,1,1,bottom_right,friendly,neutral,0.5345,,,,,,,,,,,,,,,,,
,,,,,900032,f,y,r,y,12,0,2025-04-03_13h01.10.119,VisualSearchFaces,2024.2.4,MacIntel,59.17159763,,,,,,,,988.3055,988.4213,988.4213,990.4199,block3,j,1,0,26,26,10,1,1,centre,friendly,neutral,0.4856,,,,,,,,,,,,,,,,,
,,,,,900032,f,y,r,y,12,0,2025-04-03_13h01.10.119,VisualSearchFaces,2024.2.4,MacIntel,59.17159763,,,,,,,,991.4211,991.5366,991.5366,993.5349,block3,f,1,0,27,27,20,1,0,centre,neutral,no_target,0.5007,,,,,,,,,,,,,,,,,
,,,,,900032,f,y,r,y,12,0,2025-04-03_13h01.10.119,VisualSearchFaces,2024.2.4,MacIntel,59.17159763,,,,,,,,994.5346,994.6503,994.6504,996.6487,block3,f,1,0,28,28,38,1,0,bottom_left,threatening,no_target,1.3865,,,,,,,,,,,,,,,,,
,,,,,900032,f,y,r,y,12,0,2025-04-03_13h01.10.119,VisualSearchFaces,2024.2.4,MacIntel,59.17159763,,,,,,,,997.6495,997.7651,997.7651,999.7636,block3,j,1,0,29,29,8,1,1,bottom_left,neutral,threatening,0.4411,,,,,,,,,,,,,,,,,
,,,,,900032,f,y,r,y,12,0,2025-04-03_13h01.10.119,VisualSearchFaces,2024.2.4,MacIntel,59.17159763,,,,,,,,1000.7639,1000.8792,1000.8792,1002.878,block3,j,1,0,30,30,15,1,1,centre,threatening,neutral,0.5724,,,,,,,,,,,,,,,,,
,,,,,900032,f,y,r,y,12,0,2025-04-03_13h01.10.119,VisualSearchFaces,2024.2.4,MacIntel,59.17159763,,,,,,,,1003.8794,1003.9947,1003.9947,1005.9932,block3,f,1,0,31,31,28,1,0,bottom_left,neutral,no_target,0.517,,,,,,,,,,,,,,,,,
,,,,,900032,f,y,r,y,12,0,2025-04-03_13h01.10.119,VisualSearchFaces,2024.2.4,MacIntel,59.17159763,,,,,,,,1006.9936,1007.1091,1007.1091,1009.1079,block3,j,1,0,32,32,13,1,1,bottom_left,friendly,neutral,0.4389,,,,,,,,,,,,,,,,,
,,,,,900032,f,y,r,y,12,0,2025-04-03_13h01.10.119,VisualSearchFaces,2024.2.4,MacIntel,59.17159763,,,,,,,,1010.1077,1010.2074,1010.2075,1012.2062,block3,f,1,0,33,33,29,1,0,bottom_right,neutral,no_target,0.3658,,,,,,,,,,,,,,,,,
,,,,,900032,f,y,r,y,12,0,2025-04-03_13h01.10.119,VisualSearchFaces,2024.2.4,MacIntel,59.17159763,,,,,,,,1013.2055,1013.3216,1013.3216,1015.3202,block3,f,1,0,34,34,22,1,0,top_right,neutral,no_target,0.4512,,,,,,,,,,,,,,,,,
,,,,,900032,f,y,r,y,12,0,2025-04-03_13h01.10.119,VisualSearchFaces,2024.2.4,MacIntel,59.17159763,,,,,,,,1016.3204,1016.4364,1016.4364,1018.4352,block3,f,1,0,35,35,24,1,0,bottom_right,neutral,no_target,0.3022,,,,,,,,,,,,,,,,,
,,,,,900032,f,y,r,y,12,0,2025-04-03_13h01.10.119,VisualSearchFaces,2024.2.4,MacIntel,59.17159763,,,,,,,,1019.435,1019.5341,1019.5342,1021.5328,block3,f,1,0,36,36,35,1,0,centre,threatening,no_target,0.8279,,,,,,,,,,,,,,,,,
,,,,,900032,f,y,r,y,12,0,2025-04-03_13h01.10.119,VisualSearchFaces,2024.2.4,MacIntel,59.17159763,,,,,,,,1022.5333,1022.6495,1022.6495,1024.6469,block3,f,1,0,37,37,30,1,0,centre,friendly,no_target,0.6289,,,,,,,,,,,,,,,,,
,,,,,900032,f,y,r,y,12,0,2025-04-03_13h01.10.119,VisualSearchFaces,2024.2.4,MacIntel,59.17159763,,,,,,,,1025.6479,1025.7472,1025.7473,1027.7458,block3,j,1,0,38,38,17,1,1,top_right,threatening,neutral,0.4579,,,,,,,,,,,,,,,,,
,,,,,900032,f,y,r,y,12,0,2025-04-03_13h01.10.119,VisualSearchFaces,2024.2.4,MacIntel,59.17159763,,,,,,,,1028.745,1028.8448,1028.8448,1030.8436,block3,f,1,0,39,39,23,1,0,bottom_left,neutral,no_target,0.4993,,,,,,,,,,,,,,,,,
,,,,,900032,f,y,r,y,12,0,2025-04-03_13h01.10.119,VisualSearchFaces,2024.2.4,MacIntel,59.17159763,,,,,,,,1031.8436,1031.9591,1031.9591,1033.958,block3,j,1,1,0,40,14,1,1,bottom_right,friendly,neutral,0.817,,,,,,,,,,,,,,,,,
,,,,,900032,f,y,r,y,12,0,2025-04-03_13h01.10.119,VisualSearchFaces,2024.2.4,MacIntel,59.17159763,,,,,,,,1034.9583,1035.0735,1035.0735,1037.0724,block3,j,1,1,1,41,1,1,1,top_left,neutral,friendly,0.4088,,,,,,,,,,,,,,,,,
,,,,,900032,f,y,r,y,12,0,2025-04-03_13h01.10.119,VisualSearchFaces,2024.2.4,MacIntel,59.17159763,,,,,,,,1038.0728,1038.1879,1038.1879,1040.1873,block3,j,1,1,2,42,9,1,1,bottom_right,neutral,threatening,0.402,,,,,,,,,,,,,,,,,
,,,,,900032,f,y,r,y,12,0,2025-04-03_13h01.10.119,VisualSearchFaces,2024.2.4,MacIntel,59.17159763,,,,,,,,1041.1879,1041.3024,1041.3024,1043.3017,block3,f,1,1,3,43,34,1,0,bottom_right,friendly,no_target,1.2029,,,,,,,,,,,,,,,,,
,,,,,900032,f,y,r,y,12,0,2025-04-03_13h01.10.119,VisualSearchFaces,2024.2.4,MacIntel,59.17159763,,,,,,,,1044.3014,1044.4181,1044.4181,1046.4165,block3,f,1,1,4,44,20,1,0,centre,neutral,no_target,0.4427,,,,,,,,,,,,,,,,,
,,,,,900032,f,y,r,y,12,0,2025-04-03_13h01.10.119,VisualSearchFaces,2024.2.4,MacIntel,59.17159763,,,,,,,,1047.4162,1047.5157,1047.5157,1049.5148,block3,j,1,1,5,45,10,1,1,centre,friendly,neutral,0.443,,,,,,,,,,,,,,,,,
,,,,,900032,f,y,r,y,12,0,2025-04-03_13h01.10.119,VisualSearchFaces,2024.2.4,MacIntel,59.17159763,,,,,,,,1050.5138,1050.6136,1050.6137,1052.6122,block3,f,1,1,6,46,37,1,0,top_right,threatening,no_target,0.4733,,,,,,,,,,,,,,,,,
,,,,,900032,f,y,r,y,12,0,2025-04-03_13h01.10.119,VisualSearchFaces,2024.2.4,MacIntel,59.17159763,,,,,,,,1053.6123,1053.7279,1053.7279,1055.7263,block3,f,1,1,7,47,21,1,0,top_left,neutral,no_target,0.4013,,,,,,,,,,,,,,,,,
,,,,,900032,f,y,r,y,12,0,2025-04-03_13h01.10.119,VisualSearchFaces,2024.2.4,MacIntel,59.17159763,,,,,,,,1056.7277,1056.8429,1056.8429,1058.8415,block3,f,1,1,8,48,30,1,0,centre,friendly,no_target,0.4767,,,,,,,,,,,,,,,,,
,,,,,900032,f,y,r,y,12,0,2025-04-03_13h01.10.119,VisualSearchFaces,2024.2.4,MacIntel,59.17159763,,,,,,,,1059.8421,1059.9579,1059.958,1061.9565,block3,f,1,1,9,49,38,1,0,bottom_left,threatening,no_target,0.4827,,,,,,,,,,,,,,,,,
,,,,,900032,f,y,r,y,12,0,2025-04-03_13h01.10.119,VisualSearchFaces,2024.2.4,MacIntel,59.17159763,,,,,,,,1062.9559,1063.0716,1063.0717,1065.0702,block3,f,1,1,10,50,31,1,0,top_left,friendly,no_target,0.4529,,,,,,,,,,,,,,,,,
,,,,,900032,f,y,r,y,12,0,2025-04-03_13h01.10.119,VisualSearchFaces,2024.2.4,MacIntel,59.17159763,,,,,,,,1066.0709,1066.1868,1066.1868,1068.1853,block3,j,1,1,11,51,17,1,1,top_right,threatening,neutral,0.3125,,,,,,,,,,,,,,,,,
,,,,,900032,f,y,r,y,12,0,2025-04-03_13h01.10.119,VisualSearchFaces,2024.2.4,MacIntel,59.17159763,,,,,,,,1069.1848,1069.2848,1069.2848,1071.2835,block3,j,1,1,12,52,3,1,1,bottom_left,neutral,friendly,0.6213,,,,,,,,,,,,,,,,,
,,,,,900032,f,y,r,y,12,0,2025-04-03_13h01.10.119,VisualSearchFaces,2024.2.4,MacIntel,59.17159763,,,,,,,,1072.2828,1072.3823,1072.3823,1074.3813,block3,f,1,1,13,53,32,1,0,top_right,friendly,no_target,0.5682,,,,,,,,,,,,,,,,,
,,,,,900032,f,y,r,y,12,0,2025-04-03_13h01.10.119,VisualSearchFaces,2024.2.4,MacIntel,59.17159763,,,,,,,,1075.3813,1075.4979,1075.4979,1077.4954,block3,f,1,1,14,54,33,1,0,bottom_left,friendly,no_target,0.5833,,,,,,,,,,,,,,,,,
,,,,,900032,f,y,r,y,12,0,2025-04-03_13h01.10.119,VisualSearchFaces,2024.2.4,MacIntel,59.17159763,,,,,,,,1078.4965,1078.6122,1078.6122,1080.6098,block3,j,1,1,15,55,19,1,1,bottom_right,threatening,neutral,0.5069,,,,,,,,,,,,,,,,,
,,,,,900032,f,y,r,y,12,0,2025-04-03_13h01.10.119,VisualSearchFaces,2024.2.4,MacIntel,59.17159763,,,,,,,,1081.6111,1081.7266,1081.7266,1083.7246,block3,j,1,1,16,56,15,1,1,centre,threatening,neutral,0.4694,,,,,,,,,,,,,,,,,
,,,,,900032,f,y,r,y,12,0,2025-04-03_13h01.10.119,VisualSearchFaces,2024.2.4,MacIntel,59.17159763,,,,,,,,1084.7252,1084.8409,1084.841,1086.8393,block3,j,1,1,17,57,0,1,1,centre,neutral,friendly,0.4719,,,,,,,,,,,,,,,,,
,,,,,900032,f,y,r,y,12,0,2025-04-03_13h01.10.119,VisualSearchFaces,2024.2.4,MacIntel,59.17159763,,,,,,,,1087.8394,1087.9553,1087.9553,1089.9547,block3,f,1,1,18,58,26,1,0,top_left,neutral,no_target,0.4989,,,,,,,,,,,,,,,,,
,,,,,900032,f,y,r,y,12,0,2025-04-03_13h01.10.119,VisualSearchFaces,2024.2.4,MacIntel,59.17159763,,,,,,,,1090.955,1091.07,1091.07,1093.0683,block3,j,1,1,19,59,4,1,1,bottom_right,neutral,friendly,0.6829,,,,,,,,,,,,,,,,,
,,,,,900032,f,y,r,y,12,0,2025-04-03_13h01.10.119,VisualSearchFaces,2024.2.4,MacIntel,59.17159763,,,,,,,,1094.0691,1094.1848,1094.1848,1096.1837,block3,f,1,1,20,60,25,1,0,centre,neutral,no_target,0.3832,,,,,,,,,,,,,,,,,
,,,,,900032,f,y,r,y,12,0,2025-04-03_13h01.10.119,VisualSearchFaces,2024.2.4,MacIntel,59.17159763,,,,,,,,1097.1835,1097.2991,1097.2991,1099.2979,block3,f,1,1,21,61,27,1,0,top_right,neutral,no_target,0.4704,,,,,,,,,,,,,,,,,
,,,,,900032,f,y,r,y,12,0,2025-04-03_13h01.10.119,VisualSearchFaces,2024.2.4,MacIntel,59.17159763,,,,,,,,1100.2983,1100.4137,1100.4138,1102.4122,block3,j,1,1,22,62,5,1,1,centre,neutral,threatening,0.4034,,,,,,,,,,,,,,,,,
,,,,,900032,f,y,r,y,12,0,2025-04-03_13h01.10.119,VisualSearchFaces,2024.2.4,MacIntel,59.17159763,,,,,,,,1103.4131,1103.5283,1103.5283,1105.5266,block3,j,1,1,23,63,11,1,1,top_left,friendly,neutral,0.5849,,,,,,,,,,,,,,,,,
,,,,,900032,f,y,r,y,12,0,2025-04-03_13h01.10.119,VisualSearchFaces,2024.2.4,MacIntel,59.17159763,,,,,,,,1106.5274,1106.6266,1106.6266,1108.6256,block3,j,1,1,24,64,12,1,1,top_right,friendly,neutral,0.468,,,,,,,,,,,,,,,,,
,,,,,900032,f,y,r,y,12,0,2025-04-03_13h01.10.119,VisualSearchFaces,2024.2.4,MacIntel,59.17159763,,,,,,,,1109.6252,1109.7247,1109.7247,1111.723,block3,j,1,1,25,65,18,1,1,bottom_left,threatening,neutral,0.4508,,,,,,,,,,,,,,,,,
,,,,,900032,f,y,r,y,12,0,2025-04-03_13h01.10.119,VisualSearchFaces,2024.2.4,MacIntel,59.17159763,,,,,,,,1112.7233,1112.8393,1112.8394,1114.838,block3,j,1,1,26,66,13,1,1,bottom_left,friendly,neutral,0.9518,,,,,,,,,,,,,,,,,
,,,,,900032,f,y,r,y,12,0,2025-04-03_13h01.10.119,VisualSearchFaces,2024.2.4,MacIntel,59.17159763,,,,,,,,1115.8385,1115.9536,1115.9536,1117.9526,block3,f,1,1,27,67,35,1,0,centre,threatening,no_target,0.5877,,,,,,,,,,,,,,,,,
,,,,,900032,f,y,r,y,12,0,2025-04-03_13h01.10.119,VisualSearchFaces,2024.2.4,MacIntel,59.17159763,,,,,,,,1118.9535,1119.0683,1119.0684,1121.0665,block3,f,1,1,28,68,36,1,0,top_left,threatening,no_target,0.4178,,,,,,,,,,,,,,,,,
,,,,,900032,f,y,r,y,12,0,2025-04-03_13h01.10.119,VisualSearchFaces,2024.2.4,MacIntel,59.17159763,,,,,,,,1122.0675,1122.1824,1122.1824,1124.1818,block3,f,1,1,29,69,29,1,0,bottom_right,neutral,no_target,0.3994,,,,,,,,,,,,,,,,,
,,,,,900032,f,y,r,y,12,0,2025-04-03_13h01.10.119,VisualSearchFaces,2024.2.4,MacIntel,59.17159763,,,,,,,,1125.1816,1125.2979,1125.2979,1127.2964,block3,j,1,1,30,70,16,1,1,top_left,threatening,neutral,0.4049,,,,,,,,,,,,,,,,,
,,,,,900032,f,y,r,y,12,0,2025-04-03_13h01.10.119,VisualSearchFaces,2024.2.4,MacIntel,59.17159763,,,,,,,,1128.296,1128.4114,1128.4114,1130.4102,block3,f,1,1,31,71,24,1,0,bottom_right,neutral,no_target,0.4039,,,,,,,,,,,,,,,,,
,,,,,900032,f,y,r,y,12,0,2025-04-03_13h01.10.119,VisualSearchFaces,2024.2.4,MacIntel,59.17159763,,,,,,,,1131.411,1131.5105,1131.5106,1133.5083,block3,f,1,1,32,72,22,1,0,top_right,neutral,no_target,0.3853,,,,,,,,,,,,,,,,,
,,,,,900032,f,y,r,y,12,0,2025-04-03_13h01.10.119,VisualSearchFaces,2024.2.4,MacIntel,59.17159763,,,,,,,,1134.509,1134.6249,1134.6249,1136.6238,block3,f,1,1,33,73,23,1,0,bottom_left,neutral,no_target,0.285,,,,,,,,,,,,,,,,,
,,,,,900032,f,y,r,y,12,0,2025-04-03_13h01.10.119,VisualSearchFaces,2024.2.4,MacIntel,59.17159763,,,,,,,,1137.6242,1137.7392,1137.7392,1139.7379,block3,j,1,1,34,74,8,1,1,bottom_left,neutral,threatening,0.3675,,,,,,,,,,,,,,,,,
,,,,,900032,f,y,r,y,12,0,2025-04-03_13h01.10.119,VisualSearchFaces,2024.2.4,MacIntel,59.17159763,,,,,,,,1140.7387,1140.8539,1140.8539,1142.8524,block3,f,1,1,35,75,39,1,0,bottom_right,threatening,no_target,0.367,,,,,,,,,,,,,,,,,
,,,,,900032,f,y,r,y,12,0,2025-04-03_13h01.10.119,VisualSearchFaces,2024.2.4,MacIntel,59.17159763,,,,,,,,1143.8522,1143.9681,1143.9682,1145.9666,block3,j,1,1,36,76,7,1,1,top_right,neutral,threatening,0.4164,,,,,,,,,,,,,,,,,
,,,,,900032,f,y,r,y,12,0,2025-04-03_13h01.10.119,VisualSearchFaces,2024.2.4,MacIntel,59.17159763,,,,,,,,1146.9678,1147.067,1147.0671,1149.0656,block3,j,1,1,37,77,6,1,1,top_left,neutral,threatening,0.3978,,,,,,,,,,,,,,,,,
,,,,,900032,f,y,r,y,12,0,2025-04-03_13h01.10.119,VisualSearchFaces,2024.2.4,MacIntel,59.17159763,,,,,,,,1150.0648,1150.1644,1150.1644,1152.1635,block3,f,1,1,38,78,28,1,0,bottom_left,neutral,no_target,0.6184,,,,,,,,,,,,,,,,,
,,,,,900032,f,y,r,y,12,0,2025-04-03_13h01.10.119,VisualSearchFaces,2024.2.4,MacIntel,59.17159763,,,,,,,,1153.1633,1153.2787,1153.2787,1155.278,block3,j,1,1,39,79,2,1,1,top_right,neutral,friendly,0.4176,,,,,,,,,,,,,,,,,
,,,,,900032,f,y,r,y,12,0,2025-04-03_13h01.10.119,VisualSearchFaces,2024.2.4,MacIntel,59.17159763,,,1158.5274,1162.8728,space,4.3236,,1163.8724,1163.9723,1163.9723,1165.9701,block4,,0,0,0,0,32,1,0,top_right,friendly,no_target,,,1155.2789,1158.5252,space,3.2328,,,,,,,,,,,,
,,,,,900032,f,y,r,y,12,0,2025-04-03_13h01.10.119,VisualSearchFaces,2024.2.4,MacIntel,59.17159763,,,,,,,,1166.9703,1167.0699,1167.0699,1169.0686,block4,f,1,0,1,1,29,1,0,bottom_right,neutral,no_target,0.7221,,,,,,,,,,,,,,,,,
,,,,,900032,f,y,r,y,12,0,2025-04-03_13h01.10.119,VisualSearchFaces,2024.2.4,MacIntel,59.17159763,,,,,,,,1170.0695,1170.1682,1170.1682,1172.1667,block4,j,1,0,2,2,4,1,1,bottom_right,neutral,friendly,0.5908,,,,,,,,,,,,,,,,,
,,,,,900032,f,y,r,y,12,0,2025-04-03_13h01.10.119,VisualSearchFaces,2024.2.4,MacIntel,59.17159763,,,,,,,,1173.1676,1173.2662,1173.2663,1175.2639,block4,f,1,0,3,3,22,1,0,top_right,neutral,no_target,0.4036,,,,,,,,,,,,,,,,,
,,,,,900032,f,y,r,y,12,0,2025-04-03_13h01.10.119,VisualSearchFaces,2024.2.4,MacIntel,59.17159763,,,,,,,,1176.2658,1176.3797,1176.3797,1178.3788,block4,f,1,0,4,4,24,1,0,bottom_right,neutral,no_target,0.354,,,,,,,,,,,,,,,,,
,,,,,900032,f,y,r,y,12,0,2025-04-03_13h01.10.119,VisualSearchFaces,2024.2.4,MacIntel,59.17159763,,,,,,,,1179.3791,1179.4789,1179.4789,1181.4765,block4,j,1,0,5,5,5,1,1,centre,neutral,threatening,0.3575,,,,,,,,,,,,,,,,,
,,,,,900032,f,y,r,y,12,0,2025-04-03_13h01.10.119,VisualSearchFaces,2024.2.4,MacIntel,59.17159763,,,,,,,,1182.4777,1182.5925,1182.5925,1184.5908,block4,j,1,0,6,6,15,1,1,centre,threatening,neutral,0.4883,,,,,,,,,,,,,,,,,
,,,,,900032,f,y,r,y,12,0,2025-04-03_13h01.10.119,VisualSearchFaces,2024.2.4,MacIntel,59.17159763,,,,,,,,1185.5919,1185.7074,1185.7074,1187.7063,block4,j,1,0,7,7,11,1,1,top_left,friendly,neutral,0.6086,,,,,,,,,,,,,,,,,
,,,,,900032,f,y,r,y,12,0,2025-04-03_13h01.10.119,VisualSearchFaces,2024.2.4,MacIntel,59.17159763,,,,,,,,1188.7061,1188.8221,1188.8221,1190.8201,block4,j,1,0,8,8,13,1,1,bottom_left,friendly,neutral,0.7329,,,,,,,,,,,,,,,,,
,,,,,900032,f,y,r,y,12,0,2025-04-03_13h01.10.119,VisualSearchFaces,2024.2.4,MacIntel,59.17159763,,,,,,,,1191.8208,1191.9202,1191.9202,1193.9183,block4,j,1,0,9,9,12,1,1,top_right,friendly,neutral,0.5172,,,,,,,,,,,,,,,,,
,,,,,900032,f,y,r,y,12,0,2025-04-03_13h01.10.119,VisualSearchFaces,2024.2.4,MacIntel,59.17159763,,,,,,,,1194.9193,1195.034,1195.034,1197.0329,block4,f,1,0,10,10,27,1,0,top_right,neutral,no_target,0.484,,,,,,,,,,,,,,,,,
,,,,,900032,f,y,r,y,12,0,2025-04-03_13h01.10.119,VisualSearchFaces,2024.2.4,MacIntel,59.17159763,,,,,,,,1198.0338,1198.1495,1198.1495,1200.148,block4,f,1,0,11,11,25,1,0,centre,neutral,no_target,0.4655,,,,,,,,,,,,,,,,,
,,,,,900032,f,y,r,y,12,0,2025-04-03_13h01.10.119,VisualSearchFaces,2024.2.4,MacIntel,59.17159763,,,,,,,,1201.1472,1201.2472,1201.2473,1203.2463,block4,j,1,0,12,12,0,1,1,centre,neutral,friendly,0.3344,,,,,,,,,,,,,,,,,
,,,,,900032,f,y,r,y,12,0,2025-04-03_13h01.10.119,VisualSearchFaces,2024.2.4,MacIntel,59.17159763,,,,,,,,1204.2463,1204.3613,1204.3614,1206.3608,block4,j,1,0,13,13,18,1,1,bottom_left,threatening,neutral,0.5922,,,,,,,,,,,,,,,,,
,,,,,900032,f,y,r,y,12,0,2025-04-03_13h01.10.119,VisualSearchFaces,2024.2.4,MacIntel,59.17159763,,,,,,,,1207.3605,1207.4765,1207.4765,1209.4748,block4,f,1,0,14,14,36,1,0,top_left,threatening,no_target,0.4216,,,,,,,,,,,,,,,,,
,,,,,900032,f,y,r,y,12,0,2025-04-03_13h01.10.119,VisualSearchFaces,2024.2.4,MacIntel,59.17159763,,,,,,,,1210.4748,1210.5912,1210.5912,1212.589,block4,f,1,0,15,15,21,1,0,top_left,neutral,no_target,0.3655,,,,,,,,,,,,,,,,,
,,,,,900032,f,y,r,y,12,0,2025-04-03_13h01.10.119,VisualSearchFaces,2024.2.4,MacIntel,59.17159763,,,,,,,,1213.5891,1213.7051,1213.7051,1215.7035,block4,f,1,0,16,16,35,1,0,centre,threatening,no_target,0.3825,,,,,,,,,,,,,,,,,
,,,,,900032,f,y,r,y,12,0,2025-04-03_13h01.10.119,VisualSearchFaces,2024.2.4,MacIntel,59.17159763,,,,,,,,1216.7036,1216.8041,1216.8041,1218.8014,block4,j,1,0,17,17,9,1,1,bottom_right,neutral,threatening,0.4943,,,,,,,,,,,,,,,,,
,,,,,900032,f,y,r,y,12,0,2025-04-03_13h01.10.119,VisualSearchFaces,2024.2.4,MacIntel,59.17159763,,,,,,,,1219.8023,1219.9184,1219.9184,1221.9165,block4,j,1,0,18,18,6,1,1,top_left,neutral,threatening,0.4345,,,,,,,,,,,,,,,,,
,,,,,900032,f,y,r,y,12,0,2025-04-03_13h01.10.119,VisualSearchFaces,2024.2.4,MacIntel,59.17159763,,,,,,,,1222.9173,1223.0329,1223.0329,1225.031,block4,f,1,0,19,19,28,1,0,bottom_left,neutral,no_target,0.4496,,,,,,,,,,,,,,,,,
,,,,,900032,f,y,r,y,12,0,2025-04-03_13h01.10.119,VisualSearchFaces,2024.2.4,MacIntel,59.17159763,,,,,,,,1226.0319,1226.1475,1226.1475,1228.1462,block4,j,1,0,20,20,17,1,1,top_right,threatening,neutral,0.2908,,,,,,,,,,,,,,,,,
,,,,,900032,f,y,r,y,12,0,2025-04-03_13h01.10.119,VisualSearchFaces,2024.2.4,MacIntel,59.17159763,,,,,,,,1229.1472,1229.2619,1229.2619,1231.2598,block4,j,1,0,21,21,2,1,1,top_right,neutral,friendly,0.4047,,,,,,,,,,,,,,,,,
,,,,,900032,f,y,r,y,12,0,2025-04-03_13h01.10.119,VisualSearchFaces,2024.2.4,MacIntel,59.17159763,,,,,,,,1232.2605,1232.3766,1232.3766,1234.375,block4,j,1,0,22,22,3,1,1,bottom_left,neutral,friendly,0.5526,,,,,,,,,,,,,,,,,
,,,,,900032,f,y,r,y,12,0,2025-04-03_13h01.10.119,VisualSearchFaces,2024.2.4,MacIntel,59.17159763,,,,,,,,1235.3759,1235.4904,1235.4904,1237.4892,block4,f,1,0,23,23,37,1,0,top_right,threatening,no_target,0.783,,,,,,,,,,,,,,,,,
,,,,,900032,f,y,r,y,12,0,2025-04-03_13h01.10.119,VisualSearchFaces,2024.2.4,MacIntel,59.17159763,,,,,,,,1238.4894,1238.6051,1238.6051,1240.6039,block4,j,1,0,24,24,14,1,1,bottom_right,friendly,neutral,0.6992,,,,,,,,,,,,,,,,,
,,,,,900032,f,y,r,y,12,0,2025-04-03_13h01.10.119,VisualSearchFaces,2024.2.4,MacIntel,59.17159763,,,,,,,,1241.6051,1241.72,1241.72,1243.7191,block4,f,1,0,25,25,20,1,0,centre,neutral,no_target,0.4835,,,,,,,,,,,,,,,,,
,,,,,900032,f,y,r,y,12,0,2025-04-03_13h01.10.119,VisualSearchFaces,2024.2.4,MacIntel,59.17159763,,,,,,,,1244.7191,1244.8185,1244.8185,1246.8164,block4,f,1,0,26,26,30,1,0,centre,friendly,no_target,0.669,,,,,,,,,,,,,,,,,
,,,,,900032,f,y,r,y,12,0,2025-04-03_13h01.10.119,VisualSearchFaces,2024.2.4,MacIntel,59.17159763,,,,,,,,1247.818,1247.9324,1247.9324,1249.9318,block4,j,1,0,27,27,1,1,1,top_left,neutral,friendly,0.4575,,,,,,,,,,,,,,,,,
,,,,,900032,f,y,r,y,12,0,2025-04-03_13h01.10.119,VisualSearchFaces,2024.2.4,MacIntel,59.17159763,,,,,,,,1250.9322,1251.0472,1251.0472,1253.0463,block4,f,1,0,28,28,38,1,0,bottom_left,threatening,no_target,0.7145,,,,,,,,,,,,,,,,,
,,,,,900032,f,y,r,y,12,0,2025-04-03_13h01.10.119,VisualSearchFaces,2024.2.4,MacIntel,59.17159763,,,,,,,,1254.0469,1254.1625,1254.1625,1256.1611,block4,f,1,0,29,29,26,1,0,top_left,neutral,no_target,0.5555,,,,,,,,,,,,,,,,,
,,,,,900032,f,y,r,y,12,0,2025-04-03_13h01.10.119,VisualSearchFaces,2024.2.4,MacIntel,59.17159763,,,,,,,,1257.1609,1257.2603,1257.2603,1259.2588,block4,f,1,0,30,30,23,1,0,bottom_left,neutral,no_target,0.4209,,,,,,,,,,,,,,,,,
,,,,,900032,f,y,r,y,12,0,2025-04-03_13h01.10.119,VisualSearchFaces,2024.2.4,MacIntel,59.17159763,,,,,,,,1260.2588,1260.3749,1260.3749,1262.3726,block4,j,1,0,31,31,8,1,1,bottom_left,neutral,threatening,0.4203,,,,,,,,,,,,,,,,,
,,,,,900032,f,y,r,y,12,0,2025-04-03_13h01.10.119,VisualSearchFaces,2024.2.4,MacIntel,59.17159763,,,,,,,,1263.3737,1263.4725,1263.4726,1265.472,block4,j,1,0,32,32,19,1,1,bottom_right,threatening,neutral,0.4859,,,,,,,,,,,,,,,,,
,,,,,900032,f,y,r,y,12,0,2025-04-03_13h01.10.119,VisualSearchFaces,2024.2.4,MacIntel,59.17159763,,,,,,,,1266.4717,1266.5872,1266.5873,1268.5861,block4,j,1,0,33,33,10,1,1,centre,friendly,neutral,0.357,,,,,,,,,,,,,,,,,
,,,,,900032,f,y,r,y,12,0,2025-04-03_13h01.10.119,VisualSearchFaces,2024.2.4,MacIntel,59.17159763,,,,,,,,1269.5863,1269.7021,1269.7022,1271.7008,block4,f,1,0,34,34,39,1,0,bottom_right,threatening,no_target,0.6883,,,,,,,,,,,,,,,,,
,,,,,900032,f,y,r,y,12,0,2025-04-03_13h01.10.119,VisualSearchFaces,2024.2.4,MacIntel,59.17159763,,,,,,,,1272.7011,1272.8166,1272.8166,1274.8146,block4,j,1,0,35,35,16,1,1,top_left,threatening,neutral,0.4184,,,,,,,,,,,,,,,,,
,,,,,900032,f,y,r,y,12,0,2025-04-03_13h01.10.119,VisualSearchFaces,2024.2.4,MacIntel,59.17159763,,,,,,,,1275.8147,1275.9144,1275.9144,1277.913,block4,f,1,0,36,36,34,1,0,bottom_right,friendly,no_target,0.5662,,,,,,,,,,,,,,,,,
,,,,,900032,f,y,r,y,12,0,2025-04-03_13h01.10.119,VisualSearchFaces,2024.2.4,MacIntel,59.17159763,,,,,,,,1278.9126,1279.0296,1279.0296,1281.0273,block4,f,1,0,37,37,31,1,0,top_left,friendly,no_target,0.3994,,,,,,,,,,,,,,,,,
,,,,,900032,f,y,r,y,12,0,2025-04-03_13h01.10.119,VisualSearchFaces,2024.2.4,MacIntel,59.17159763,,,,,,,,1282.0274,1282.1438,1282.1438,1284.1416,block4,j,1,0,38,38,7,1,1,top_right,neutral,threatening,0.4906,,,,,,,,,,,,,,,,,
,,,,,900032,f,y,r,y,12,0,2025-04-03_13h01.10.119,VisualSearchFaces,2024.2.4,MacIntel,59.17159763,,,,,,,,1285.1423,1285.2581,1285.2581,1287.2564,block4,f,1,0,39,39,33,1,0,bottom_left,friendly,no_target,0.6517,,,,,,,,,,,,,,,,,
,,,,,900032,f,y,r,y,12,0,2025-04-03_13h01.10.119,VisualSearchFaces,2024.2.4,MacIntel,59.17159763,,,,,,,,1288.2576,1288.372,1288.372,1290.3709,block4,f,1,1,0,40,28,1,0,bottom_left,neutral,no_target,0.5024,,,,,,,,,,,,,,,,,
,,,,,900032,f,y,r,y,12,0,2025-04-03_13h01.10.119,VisualSearchFaces,2024.2.4,MacIntel,59.17159763,,,,,,,,1291.3718,1291.4877,1291.4877,1293.486,block4,j,1,1,1,41,8,1,1,bottom_left,neutral,threatening,0.5191,,,,,,,,,,,,,,,,,
,,,,,900032,f,y,r,y,12,0,2025-04-03_13h01.10.119,VisualSearchFaces,2024.2.4,MacIntel,59.17159763,,,,,,,,1294.4864,1294.5855,1294.5856,1296.5837,block4,f,0,1,2,42,18,1,1,bottom_left,threatening,neutral,0.6684,,,,,,,,,,,,,,,,,
,,,,,900032,f,y,r,y,12,0,2025-04-03_13h01.10.119,VisualSearchFaces,2024.2.4,MacIntel,59.17159763,,,,,,,,1297.5851,1297.6997,1297.6997,1299.6982,block4,f,1,1,3,43,22,1,0,top_right,neutral,no_target,0.5036,,,,,,,,,,,,,,,,,
,,,,,900032,f,y,r,y,12,0,2025-04-03_13h01.10.119,VisualSearchFaces,2024.2.4,MacIntel,59.17159763,,,,,,,,1300.6991,1300.7981,1300.7981,1302.797,block4,j,1,1,4,44,19,1,1,bottom_right,threatening,neutral,0.387,,,,,,,,,,,,,,,,,
,,,,,900032,f,y,r,y,12,0,2025-04-03_13h01.10.119,VisualSearchFaces,2024.2.4,MacIntel,59.17159763,,,,,,,,1303.7961,1303.8962,1303.8962,1305.8948,block4,j,1,1,5,45,4,1,1,bottom_right,neutral,friendly,0.4672,,,,,,,,,,,,,,,,,
,,,,,900032,f,y,r,y,12,0,2025-04-03_13h01.10.119,VisualSearchFaces,2024.2.4,MacIntel,59.17159763,,,,,,,,1306.8939,1306.9938,1306.9939,1308.9924,block4,f,1,1,6,46,27,1,0,top_right,neutral,no_target,0.4861,,,,,,,,,,,,,,,,,
,,,,,900032,f,y,r,y,12,0,2025-04-03_13h01.10.119,VisualSearchFaces,2024.2.4,MacIntel,59.17159763,,,,,,,,1309.9923,1310.108,1310.108,1312.1066,block4,f,1,1,7,47,26,1,0,top_left,neutral,no_target,0.5089,,,,,,,,,,,,,,,,,
,,,,,900032,f,y,r,y,12,0,2025-04-03_13h01.10.119,VisualSearchFaces,2024.2.4,MacIntel,59.17159763,,,,,,,,1313.108,1313.2222,1313.2223,1315.2211,block4,f,1,1,8,48,31,1,0,top_left,friendly,no_target,0.753,,,,,,,,,,,,,,,,,
,,,,,900032,f,y,r,y,12,0,2025-04-03_13h01.10.119,VisualSearchFaces,2024.2.4,MacIntel,59.17159763,,,,,,,,1316.2217,1316.3375,1316.3376,1318.3363,block4,f,1,1,9,49,35,1,0,centre,threatening,no_target,0.474,,,,,,,,,,,,,,,,,
,,,,,900032,f,y,r,y,12,0,2025-04-03_13h01.10.119,VisualSearchFaces,2024.2.4,MacIntel,59.17159763,,,,,,,,1319.3358,1319.4515,1319.4516,1321.4505,block4,f,1,1,10,50,20,1,0,centre,neutral,no_target,0.4161,,,,,,,,,,,,,,,,,
,,,,,900032,f,y,r,y,12,0,2025-04-03_13h01.10.119,VisualSearchFaces,2024.2.4,MacIntel,59.17159763,,,,,,,,1322.4514,1322.5507,1322.5507,1324.5483,block4,j,1,1,11,51,13,1,1,bottom_left,friendly,neutral,0.3497,,,,,,,,,,,,,,,,,
,,,,,900032,f,y,r,y,12,0,2025-04-03_13h01.10.119,VisualSearchFaces,2024.2.4,MacIntel,59.17159763,,,,,,,,1325.549,1325.6649,1325.6649,1327.6636,block4,j,1,1,12,52,3,1,1,bottom_left,neutral,friendly,0.5164,,,,,,,,,,,,,,,,,
,,,,,900032,f,y,r,y,12,0,2025-04-03_13h01.10.119,VisualSearchFaces,2024.2.4,MacIntel,59.17159763,,,,,,,,1328.6629,1328.7625,1328.7625,1330.7609,block4,j,1,1,13,53,6,1,1,top_left,neutral,threatening,0.3059,,,,,,,,,,,,,,,,,
,,,,,900032,f,y,r,y,12,0,2025-04-03_13h01.10.119,VisualSearchFaces,2024.2.4,MacIntel,59.17159763,,,,,,,,1331.7611,1331.8768,1331.8768,1333.8757,block4,j,1,1,14,54,9,1,1,bottom_right,neutral,threatening,0.2835,,,,,,,,,,,,,,,,,
,,,,,900032,f,y,r,y,12,0,2025-04-03_13h01.10.119,VisualSearchFaces,2024.2.4,MacIntel,59.17159763,,,,,,,,1334.8759,1334.9755,1334.9755,1336.9732,block4,f,1,1,15,55,25,1,0,centre,neutral,no_target,0.3528,,,,,,,,,,,,,,,,,
,,,,,900032,f,y,r,y,12,0,2025-04-03_13h01.10.119,VisualSearchFaces,2024.2.4,MacIntel,59.17159763,,,,,,,,1337.9735,1338.0891,1338.0891,1340.0878,block4,j,1,1,16,56,11,1,1,top_left,friendly,neutral,0.3945,,,,,,,,,,,,,,,,,
,,,,,900032,f,y,r,y,12,0,2025-04-03_13h01.10.119,VisualSearchFaces,2024.2.4,MacIntel,59.17159763,,,,,,,,1341.0887,1341.188,1341.188,1343.1864,block4,f,1,1,17,57,39,1,0,bottom_right,threatening,no_target,0.4388,,,,,,,,,,,,,,,,,
,,,,,900032,f,y,r,y,12,0,2025-04-03_13h01.10.119,VisualSearchFaces,2024.2.4,MacIntel,59.17159763,,,,,,,,1344.1871,1344.3024,1344.3025,1346.3012,block4,j,1,1,18,58,16,1,1,top_left,threatening,neutral,0.9551,,,,,,,,,,,,,,,,,
,,,,,900032,f,y,r,y,12,0,2025-04-03_13h01.10.119,VisualSearchFaces,2024.2.4,MacIntel,59.17159763,,,,,,,,1347.3005,1347.4165,1347.4165,1349.4158,block4,f,1,1,19,59,36,1,0,top_left,threatening,no_target,0.5103,,,,,,,,,,,,,,,,,
,,,,,900032,f,y,r,y,12,0,2025-04-03_13h01.10.119,VisualSearchFaces,2024.2.4,MacIntel,59.17159763,,,,,,,,1350.4153,1350.5311,1350.5311,1352.5298,block4,j,1,1,20,60,0,1,1,centre,neutral,friendly,0.5539,,,,,,,,,,,,,,,,,
,,,,,900032,f,y,r,y,12,0,2025-04-03_13h01.10.119,VisualSearchFaces,2024.2.4,MacIntel,59.17159763,,,,,,,,1353.5305,1353.6466,1353.6466,1355.6446,block4,j,1,1,21,61,1,1,1,top_left,neutral,friendly,0.6211,,,,,,,,,,,,,,,,,
,,,,,900032,f,y,r,y,12,0,2025-04-03_13h01.10.119,VisualSearchFaces,2024.2.4,MacIntel,59.17159763,,,,,,,,1356.645,1356.76,1356.76,1358.7589,block4,f,1,1,22,62,29,1,0,bottom_right,neutral,no_target,0.4325,,,,,,,,,,,,,,,,,
,,,,,900032,f,y,r,y,12,0,2025-04-03_13h01.10.119,VisualSearchFaces,2024.2.4,MacIntel,59.17159763,,,,,,,,1359.759,1359.8585,1359.8585,1361.8575,block4,f,1,1,23,63,37,1,0,top_right,threatening,no_target,0.4788,,,,,,,,,,,,,,,,,
,,,,,900032,f,y,r,y,12,0,2025-04-03_13h01.10.119,VisualSearchFaces,2024.2.4,MacIntel,59.17159763,,,,,,,,1362.858,1362.9736,1362.9736,1364.9722,block4,f,1,1,24,64,30,1,0,centre,friendly,no_target,0.5495,,,,,,,,,,,,,,,,,
,,,,,900032,f,y,r,y,12,0,2025-04-03_13h01.10.119,VisualSearchFaces,2024.2.4,MacIntel,59.17159763,,,,,,,,1365.972,1366.0881,1366.0881,1368.0863,block4,j,1,1,25,65,7,1,1,top_right,neutral,threatening,0.5356,,,,,,,,,,,,,,,,,
,,,,,900032,f,y,r,y,12,0,2025-04-03_13h01.10.119,VisualSearchFaces,2024.2.4,MacIntel,59.17159763,,,,,,,,1369.0872,1369.2027,1369.2027,1371.201,block4,f,1,1,26,66,23,1,0,bottom_left,neutral,no_target,0.4248,,,,,,,,,,,,,,,,,
,,,,,900032,f,y,r,y,12,0,2025-04-03_13h01.10.119,VisualSearchFaces,2024.2.4,MacIntel,59.17159763,,,,,,,,1372.2012,1372.3004,1372.3004,1374.2986,block4,f,1,1,27,67,38,1,0,bottom_left,threatening,no_target,0.7281,,,,,,,,,,,,,,,,,
,,,,,900032,f,y,r,y,12,0,2025-04-03_13h01.10.119,VisualSearchFaces,2024.2.4,MacIntel,59.17159763,,,,,,,,1375.2993,1375.4152,1375.4152,1377.413,block4,j,1,1,28,68,17,1,1,top_right,threatening,neutral,0.3664,,,,,,,,,,,,,,,,,
,,,,,900032,f,y,r,y,12,0,2025-04-03_13h01.10.119,VisualSearchFaces,2024.2.4,MacIntel,59.17159763,,,,,,,,1378.4134,1378.5137,1378.5137,1380.5111,block4,j,1,1,29,69,2,1,1,top_right,neutral,friendly,0.4391,,,,,,,,,,,,,,,,,
,,,,,900032,f,y,r,y,12,0,2025-04-03_13h01.10.119,VisualSearchFaces,2024.2.4,MacIntel,59.17159763,,,,,,,,1381.5119,1381.6279,1381.6279,1383.6267,block4,j,1,1,30,70,5,1,1,centre,neutral,threatening,0.3651,,,,,,,,,,,,,,,,,
,,,,,900032,f,y,r,y,12,0,2025-04-03_13h01.10.119,VisualSearchFaces,2024.2.4,MacIntel,59.17159763,,,,,,,,1384.6266,1384.7424,1384.7424,1386.7411,block4,j,1,1,31,71,14,1,1,bottom_right,friendly,neutral,0.7313,,,,,,,,,,,,,,,,,
,,,,,900032,f,y,r,y,12,0,2025-04-03_13h01.10.119,VisualSearchFaces,2024.2.4,MacIntel,59.17159763,,,,,,,,1387.7404,1387.8398,1387.8398,1389.8389,block4,f,1,1,32,72,33,1,0,bottom_left,friendly,no_target,0.5034,,,,,,,,,,,,,,,,,
,,,,,900032,f,y,r,y,12,0,2025-04-03_13h01.10.119,VisualSearchFaces,2024.2.4,MacIntel,59.17159763,,,,,,,,1390.839,1390.9551,1390.9551,1392.9531,block4,f,1,1,33,73,24,1,0,bottom_right,neutral,no_target,0.5531,,,,,,,,,,,,,,,,,
,,,,,900032,f,y,r,y,12,0,2025-04-03_13h01.10.119,VisualSearchFaces,2024.2.4,MacIntel,59.17159763,,,,,,,,1393.9536,1394.0533,1394.0533,1396.0515,block4,j,1,1,34,74,12,1,1,top_right,friendly,neutral,0.4158,,,,,,,,,,,,,,,,,
,,,,,900032,f,y,r,y,12,0,2025-04-03_13h01.10.119,VisualSearchFaces,2024.2.4,MacIntel,59.17159763,,,,,,,,1397.051,1397.151,1397.151,1399.1498,block4,f,1,1,35,75,34,1,0,bottom_right,friendly,no_target,0.56,,,,,,,,,,,,,,,,,
,,,,,900032,f,y,r,y,12,0,2025-04-03_13h01.10.119,VisualSearchFaces,2024.2.4,MacIntel,59.17159763,,,,,,,,1400.1495,1400.2654,1400.2654,1402.2632,block4,f,1,1,36,76,32,1,0,top_right,friendly,no_target,0.6095,,,,,,,,,,,,,,,,,
,,,,,900032,f,y,r,y,12,0,2025-04-03_13h01.10.119,VisualSearchFaces,2024.2.4,MacIntel,59.17159763,,,,,,,,1403.2635,1403.3635,1403.3635,1405.3613,block4,j,1,1,37,77,10,1,1,centre,friendly,neutral,0.4011,,,,,,,,,,,,,,,,,
,,,,,900032,f,y,r,y,12,0,2025-04-03_13h01.10.119,VisualSearchFaces,2024.2.4,MacIntel,59.17159763,,,,,,,,1406.3621,1406.4614,1406.4614,1408.4592,block4,f,1,1,38,78,21,1,0,top_left,neutral,no_target,0.3824,,,,,,,,,,,,,,,,,
,,,,,900032,f,y,r,y,12,0,2025-04-03_13h01.10.119,VisualSearchFaces,2024.2.4,MacIntel,59.17159763,,,,,,,,1409.4596,1409.559,1409.559,1411.5584,block4,j,1,1,39,79,15,1,1,centre,threatening,neutral,0.8169,,,,,,,,,,,,,,,,,
,,,,,900032,f,y,r,y,12,0,2025-04-03_13h01.10.119,VisualSearchFaces,2024.2.4,MacIntel,59.17159763,,,,,,,,,,,,,,,,,,,,,,,,,,1411.5593,1419.2189,space,7.6422,,1419.2195,1476.7653,"minimalistic faces representing a range of emotions, indifferent, mad and content",1,[1476.7648999999763],[1476.7648999999763],,,,,
,,,,,900032,f,y,r,y,12,0,2025-04-03_13h01.10.119,VisualSearchFaces,2024.2.4,MacIntel,59.17159763,,,,,,,,,,,,,,,,,,,,,,,,,,,,,,,,,,,,,1476.7786,1480.0623,space,3.2652,
