Welcome.started,Welcome.stopped,keyboard_space_welcome.keys,keyboard_space_welcome.rt,keyboard_space_welcome.duration,participant,gender,(corrected) normal vision,handedness,exp vse,session,skip_intro,date,expName,psychopyVersion,OS,frameRate,stimulus_exposure.started,stimulus_exposure.stopped,Block_intro.started,Block_intro.stopped,keyboard_space.keys,keyboard_space.rt,keyboard_space.duration,Stimulus.started,Stimulus.stopped,fixation_ending.started,fixation_ending.stopped,block_id,keyboard_response.keys,keyboard_response.corr,trials.thisRepN,trials.thisTrialN,trials.thisN,trials.thisIndex,trials.ran,target_presence,target_position,background_emotion,target_emotion,keyboard_response.rt,keyboard_response.duration,Block_outro.started,Block_outro.stopped,keyboard_space_end.keys,keyboard_space_end.rt,keyboard_space_end.duration,Question_about_stimulus.started,Question_about_stimulus.stopped,textbox_response.text,button.numClicks,button.timesOn,button.timesOff,Thanks.started,Thanks.stopped,keyboard_space_goodbye.keys,keyboard_space_goodbye.rt,keyboard_space_goodbye.duration
1E-04,39.1045,space,39.0858,,924766,m,y,r,n,14,0,2025-04-05_11h20.31.007,VisualSearchFaces,2024.2.4,MacIntel,121.9512195,,,,,,,,,,,,,,,,,,,,,,,,,,,,,,,,,,,,,,,,,
,,,,,924766,m,y,r,n,14,0,2025-04-05_11h20.31.007,VisualSearchFaces,2024.2.4,MacIntel,121.9512195,60.1797,63.1856,63.1939,111.9618,space,48.7543,,112.9632,113.2196,113.2199,115.2194,practice1,,0,0,0,0,14,1,1,bottom_right,friendly,neutral,,,,,,,,,,,,,,,,,,
,,,,,924766,m,y,r,n,14,0,2025-04-05_11h20.31.007,VisualSearchFaces,2024.2.4,MacIntel,121.9512195,,,,,,,,116.2207,116.4777,116.4777,118.4768,practice1,,0,0,1,1,35,1,0,centre,threatening,no_target,,,,,,,,,,,,,,,,,,
,,,,,924766,m,y,r,n,14,0,2025-04-05_11h20.31.007,VisualSearchFaces,2024.2.4,MacIntel,121.9512195,,,,,,,,119.4787,119.736,119.7361,121.736,practice1,,0,0,2,2,23,1,0,bottom_left,neutral,no_target,,,,,,,,,,,,,,,,,,
,,,,,924766,m,y,r,n,14,0,2025-04-05_11h20.31.007,VisualSearchFaces,2024.2.4,MacIntel,121.9512195,,,,,,,,122.7372,122.9939,122.994,124.9942,practice1,,0,0,3,3,12,1,1,top_right,friendly,neutral,,,,,,,,,,,,,,,,,,
,,,,,924766,m,y,r,n,14,0,2025-04-05_11h20.31.007,VisualSearchFaces,2024.2.4,MacIntel,121.9512195,,,,,,,,125.9957,126.2526,126.2527,128.2516,practice1,,0,0,4,4,25,1,0,centre,neutral,no_target,,,,,,,,,,,,,,,,,,
,,,,,924766,m,y,r,n,14,0,2025-04-05_11h20.31.007,VisualSearchFaces,2024.2.4,MacIntel,121.9512195,,,,,,,,129.2544,129.5026,129.5027,131.5026,practice1,,0,0,5,5,4,1,1,bottom_right,neutral,friendly,,,,,,,,,,,,,,,,,,
,,,,,924766,m,y,r,n,14,0,2025-04-05_11h20.31.007,VisualSearchFaces,2024.2.4,MacIntel,121.9512195,,,,,,,,132.5043,132.7609,132.7609,134.7608,practice1,,0,0,6,6,31,1,0,top_left,friendly,no_target,,,,,,,,,,,,,,,,,,
,,,,,924766,m,y,r,n,14,0,2025-04-05_11h20.31.007,VisualSearchFaces,2024.2.4,MacIntel,121.9512195,,,,,,,,135.7623,136.0192,136.0194,138.0191,practice1,,0,0,7,7,11,1,1,top_left,friendly,neutral,,,,,,,,,,,,,,,,,,
,,,,,924766,m,y,r,n,14,0,2025-04-05_11h20.31.007,VisualSearchFaces,2024.2.4,MacIntel,121.9512195,,,,,,,,139.0207,139.2778,139.2779,141.2776,practice1,,0,0,8,8,32,1,0,top_right,friendly,no_target,,,,,,,,,,,,,,,,,,
,,,,,924766,m,y,r,n,14,0,2025-04-05_11h20.31.007,VisualSearchFaces,2024.2.4,MacIntel,121.9512195,,,,,,,,142.278,142.536,142.5361,144.5361,practice1,,0,0,9,9,10,1,1,centre,friendly,neutral,,,,,,,,,,,,,,,,,,
,,,,,924766,m,y,r,n,14,0,2025-04-05_11h20.31.007,VisualSearchFaces,2024.2.4,MacIntel,121.9512195,,,,,,,,145.5377,145.7943,145.7943,147.7941,practice1,,0,0,10,10,7,1,1,top_right,neutral,threatening,,,,,,,,,,,,,,,,,,
,,,,,924766,m,y,r,n,14,0,2025-04-05_11h20.31.007,VisualSearchFaces,2024.2.4,MacIntel,121.9512195,,,,,,,,148.7956,149.0441,149.0442,151.0441,practice1,,0,0,11,11,5,1,1,centre,neutral,threatening,,,,,,,,,,,,,,,,,,
,,,,,924766,m,y,r,n,14,0,2025-04-05_11h20.31.007,VisualSearchFaces,2024.2.4,MacIntel,121.9512195,,,,,,,,152.0456,152.2943,152.2943,154.2943,practice1,,0,0,12,12,0,1,1,centre,neutral,friendly,,,,,,,,,,,,,,,,,,
,,,,,924766,m,y,r,n,14,0,2025-04-05_11h20.31.007,VisualSearchFaces,2024.2.4,MacIntel,121.9512195,,,,,,,,155.2958,155.5526,155.5527,157.5526,practice1,,0,0,13,13,30,1,0,centre,friendly,no_target,,,,,,,,,,,,,,,,,,
,,,,,924766,m,y,r,n,14,0,2025-04-05_11h20.31.007,VisualSearchFaces,2024.2.4,MacIntel,121.9512195,,,,,,,,158.5537,158.8107,158.8108,160.8108,practice1,f,1,0,14,14,36,1,0,top_left,threatening,no_target,0.0016,,,,,,,,,,,,,,,,,
,,,,,924766,m,y,r,n,14,0,2025-04-05_11h20.31.007,VisualSearchFaces,2024.2.4,MacIntel,121.9512195,,,,,,,,161.8121,162.0693,162.0694,164.0691,practice1,,0,0,15,15,39,1,0,bottom_right,threatening,no_target,,,,,,,,,,,,,,,,,,
,,,,,924766,m,y,r,n,14,0,2025-04-05_11h20.31.007,VisualSearchFaces,2024.2.4,MacIntel,121.9512195,,,,,,,,165.0703,165.3274,165.3274,167.3274,practice1,j,1,0,16,16,2,1,1,top_right,neutral,friendly,0.0181,,,,,,,,,,,,,,,,,
,,,,,924766,m,y,r,n,14,0,2025-04-05_11h20.31.007,VisualSearchFaces,2024.2.4,MacIntel,121.9512195,,,,,,,,168.3289,168.5858,168.5858,170.5858,practice1,,0,0,17,17,3,1,1,bottom_left,neutral,friendly,,,,,,,,,,,,,,,,,,
,,,,,924766,m,y,r,n,14,0,2025-04-05_11h20.31.007,VisualSearchFaces,2024.2.4,MacIntel,121.9512195,,,,,,,,171.5887,171.844,171.844,173.8442,practice1,,0,0,18,18,17,1,1,top_right,threatening,neutral,,,,,,,,,,,,,,,,,,
,,,,,924766,m,y,r,n,14,0,2025-04-05_11h20.31.007,VisualSearchFaces,2024.2.4,MacIntel,121.9512195,,,,,,,,174.8456,175.094,175.0941,177.094,practice1,j,1,0,19,19,19,1,1,bottom_right,threatening,neutral,0.1084,,,,,,,,,,,,,,,,,
,,,,,924766,m,y,r,n,14,0,2025-04-05_11h20.31.007,VisualSearchFaces,2024.2.4,MacIntel,121.9512195,,,,,,,,178.0966,178.3521,178.3521,180.3512,practice1,j,0,0,20,20,27,1,0,top_right,neutral,no_target,0.0597,,,,,,,,,,,,,,,,,
,,,,,924766,m,y,r,n,14,0,2025-04-05_11h20.31.007,VisualSearchFaces,2024.2.4,MacIntel,121.9512195,,,,,,,,181.353,181.6023,181.6024,183.6013,practice1,f,1,0,21,21,22,1,0,top_right,neutral,no_target,0.042,,,,,,,,,,,,,,,,,
,,,,,924766,m,y,r,n,14,0,2025-04-05_11h20.31.007,VisualSearchFaces,2024.2.4,MacIntel,121.9512195,,,,,,,,184.6039,184.8607,184.8608,186.8598,practice1,j,1,0,22,22,6,1,1,top_left,neutral,threatening,0.5037,,,,,,,,,,,,,,,,,
,,,,,924766,m,y,r,n,14,0,2025-04-05_11h20.31.007,VisualSearchFaces,2024.2.4,MacIntel,121.9512195,,,,,,,,187.8619,188.1181,188.1182,190.1189,practice1,j,0,0,23,23,24,1,0,bottom_right,neutral,no_target,0.2517,,,,,,,,,,,,,,,,,
,,,,,924766,m,y,r,n,14,0,2025-04-05_11h20.31.007,VisualSearchFaces,2024.2.4,MacIntel,121.9512195,,,,,,,,191.1202,191.3772,191.3773,193.3772,practice1,f,0,0,24,24,15,1,1,centre,threatening,neutral,0.3159,,,,,,,,,,,,,,,,,
,,,,,924766,m,y,r,n,14,0,2025-04-05_11h20.31.007,VisualSearchFaces,2024.2.4,MacIntel,121.9512195,,,,,,,,194.3787,194.6357,194.6357,196.6355,practice1,f,1,0,25,25,21,1,0,top_left,neutral,no_target,0.4761,,,,,,,,,,,,,,,,,
,,,,,924766,m,y,r,n,14,0,2025-04-05_11h20.31.007,VisualSearchFaces,2024.2.4,MacIntel,121.9512195,,,,,,,,197.6367,197.8942,197.8942,199.8933,practice1,j,1,0,26,26,9,1,1,bottom_right,neutral,threatening,0.266,,,,,,,,,,,,,,,,,
,,,,,924766,m,y,r,n,14,0,2025-04-05_11h20.31.007,VisualSearchFaces,2024.2.4,MacIntel,121.9512195,,,,,,,,200.8957,201.1442,201.1443,203.1438,practice1,j,1,0,27,27,13,1,1,bottom_left,friendly,neutral,0.954,,,,,,,,,,,,,,,,,
,,,,,924766,m,y,r,n,14,0,2025-04-05_11h20.31.007,VisualSearchFaces,2024.2.4,MacIntel,121.9512195,,,,,,,,204.1454,204.4016,204.4017,206.4022,practice1,j,1,0,28,28,1,1,1,top_left,neutral,friendly,0.5846,,,,,,,,,,,,,,,,,
,,,,,924766,m,y,r,n,14,0,2025-04-05_11h20.31.007,VisualSearchFaces,2024.2.4,MacIntel,121.9512195,,,,,,,,207.4028,207.6522,207.6523,209.6514,practice1,f,1,0,29,29,26,1,0,top_left,neutral,no_target,0.4095,,,,,,,,,,,,,,,,,
,,,,,924766,m,y,r,n,14,0,2025-04-05_11h20.31.007,VisualSearchFaces,2024.2.4,MacIntel,121.9512195,,,,,,,,210.6534,210.9097,210.9098,212.9105,practice1,f,1,0,30,30,34,1,0,bottom_right,friendly,no_target,0.4913,,,,,,,,,,,,,,,,,
,,,,,924766,m,y,r,n,14,0,2025-04-05_11h20.31.007,VisualSearchFaces,2024.2.4,MacIntel,121.9512195,,,,,,,,213.9126,214.1689,214.169,216.1688,practice1,j,1,0,31,31,8,1,1,bottom_left,neutral,threatening,0.3763,,,,,,,,,,,,,,,,,
,,,,,924766,m,y,r,n,14,0,2025-04-05_11h20.31.007,VisualSearchFaces,2024.2.4,MacIntel,121.9512195,,,,,,,,217.1706,217.4271,217.4272,219.4268,practice1,j,1,0,32,32,18,1,1,bottom_left,threatening,neutral,0.3581,,,,,,,,,,,,,,,,,
,,,,,924766,m,y,r,n,14,0,2025-04-05_11h20.31.007,VisualSearchFaces,2024.2.4,MacIntel,121.9512195,,,,,,,,220.4285,220.6847,220.6848,222.6851,practice1,f,1,0,33,33,29,1,0,bottom_right,neutral,no_target,0.5412,,,,,,,,,,,,,,,,,
,,,,,924766,m,y,r,n,14,0,2025-04-05_11h20.31.007,VisualSearchFaces,2024.2.4,MacIntel,121.9512195,,,,,,,,223.6866,223.9435,223.9435,225.9436,practice1,f,1,0,34,34,37,1,0,top_right,threatening,no_target,0.8186,,,,,,,,,,,,,,,,,
,,,,,924766,m,y,r,n,14,0,2025-04-05_11h20.31.007,VisualSearchFaces,2024.2.4,MacIntel,121.9512195,,,,,,,,226.9453,227.2022,227.2022,229.2022,practice1,j,1,0,35,35,16,1,1,top_left,threatening,neutral,0.5331,,,,,,,,,,,,,,,,,
,,,,,924766,m,y,r,n,14,0,2025-04-05_11h20.31.007,VisualSearchFaces,2024.2.4,MacIntel,121.9512195,,,,,,,,230.2038,230.4595,230.4596,232.4605,practice1,f,1,0,36,36,28,1,0,bottom_left,neutral,no_target,0.4098,,,,,,,,,,,,,,,,,
,,,,,924766,m,y,r,n,14,0,2025-04-05_11h20.31.007,VisualSearchFaces,2024.2.4,MacIntel,121.9512195,,,,,,,,233.4621,233.7179,233.7179,235.718,practice1,f,1,0,37,37,20,1,0,centre,neutral,no_target,0.6931,,,,,,,,,,,,,,,,,
,,,,,924766,m,y,r,n,14,0,2025-04-05_11h20.31.007,VisualSearchFaces,2024.2.4,MacIntel,121.9512195,,,,,,,,236.7192,236.9689,236.9689,238.9688,practice1,j,0,0,38,38,38,1,0,bottom_left,threatening,no_target,0.5176,,,,,,,,,,,,,,,,,
,,,,,924766,m,y,r,n,14,0,2025-04-05_11h20.31.007,VisualSearchFaces,2024.2.4,MacIntel,121.9512195,,,,,,,,239.9701,240.2189,240.219,242.219,practice1,j,0,0,39,39,33,1,0,bottom_left,friendly,no_target,1.0661,,,,,,,,,,,,,,,,,
,,,,,924766,m,y,r,n,14,0,2025-04-05_11h20.31.007,VisualSearchFaces,2024.2.4,MacIntel,121.9512195,,,312.6058,344.1682,space,31.5489,,345.17,345.2765,345.2767,347.2766,practice2,j,0,0,0,0,39,1,0,bottom_right,threatening,no_target,0.7537,,242.22,312.6025,space,70.37,,,,,,,,,,,,
,,,,,924766,m,y,r,n,14,0,2025-04-05_11h20.31.007,VisualSearchFaces,2024.2.4,MacIntel,121.9512195,,,,,,,,348.2771,348.3757,348.3758,350.3765,practice2,j,1,0,1,1,14,1,1,bottom_right,friendly,neutral,0.5474,,,,,,,,,,,,,,,,,
,,,,,924766,m,y,r,n,14,0,2025-04-05_11h20.31.007,VisualSearchFaces,2024.2.4,MacIntel,121.9512195,,,,,,,,351.3772,351.4766,351.4767,353.4757,practice2,j,1,0,2,2,16,1,1,top_left,threatening,neutral,0.3766,,,,,,,,,,,,,,,,,
,,,,,924766,m,y,r,n,14,0,2025-04-05_11h20.31.007,VisualSearchFaces,2024.2.4,MacIntel,121.9512195,,,,,,,,354.4791,354.5846,354.5847,356.5849,practice2,j,1,0,3,3,10,1,1,centre,friendly,neutral,0.4267,,,,,,,,,,,,,,,,,
,,,,,924766,m,y,r,n,14,0,2025-04-05_11h20.31.007,VisualSearchFaces,2024.2.4,MacIntel,121.9512195,,,,,,,,357.5857,357.6848,357.6848,359.6849,practice2,f,1,0,4,4,27,1,0,top_right,neutral,no_target,0.3776,,,,,,,,,,,,,,,,,
,,,,,924766,m,y,r,n,14,0,2025-04-05_11h20.31.007,VisualSearchFaces,2024.2.4,MacIntel,121.9512195,,,,,,,,360.6861,360.7933,360.7933,362.7932,practice2,j,1,0,5,5,9,1,1,bottom_right,neutral,threatening,0.3755,,,,,,,,,,,,,,,,,
,,,,,924766,m,y,r,n,14,0,2025-04-05_11h20.31.007,VisualSearchFaces,2024.2.4,MacIntel,121.9512195,,,,,,,,363.7938,363.8931,363.8931,365.8921,practice2,j,1,0,6,6,6,1,1,top_left,neutral,threatening,0.6245,,,,,,,,,,,,,,,,,
,,,,,924766,m,y,r,n,14,0,2025-04-05_11h20.31.007,VisualSearchFaces,2024.2.4,MacIntel,121.9512195,,,,,,,,366.8957,367.0016,367.0016,369.0015,practice2,j,1,0,7,7,2,1,1,top_right,neutral,friendly,0.3665,,,,,,,,,,,,,,,,,
,,,,,924766,m,y,r,n,14,0,2025-04-05_11h20.31.007,VisualSearchFaces,2024.2.4,MacIntel,121.9512195,,,,,,,,370.0031,370.1099,370.1099,372.1097,practice2,j,0,0,8,8,33,1,0,bottom_left,friendly,no_target,0.304,,,,,,,,,,,,,,,,,
,,,,,924766,m,y,r,n,14,0,2025-04-05_11h20.31.007,VisualSearchFaces,2024.2.4,MacIntel,121.9512195,,,,,,,,373.1111,373.2181,373.2181,375.2172,practice2,j,1,0,9,9,19,1,1,bottom_right,threatening,neutral,0.3761,,,,,,,,,,,,,,,,,
,,,,,924766,m,y,r,n,14,0,2025-04-05_11h20.31.007,VisualSearchFaces,2024.2.4,MacIntel,121.9512195,,,,,,,,376.2194,376.3181,376.3181,378.3179,practice2,j,1,0,10,10,4,1,1,bottom_right,neutral,friendly,0.3585,,,,,,,,,,,,,,,,,
,,,,,924766,m,y,r,n,14,0,2025-04-05_11h20.31.007,VisualSearchFaces,2024.2.4,MacIntel,121.9512195,,,,,,,,379.3195,379.4266,379.4267,381.4263,practice2,j,1,0,11,11,0,1,1,centre,neutral,friendly,0.5086,,,,,,,,,,,,,,,,,
,,,,,924766,m,y,r,n,14,0,2025-04-05_11h20.31.007,VisualSearchFaces,2024.2.4,MacIntel,121.9512195,,,,,,,,382.4278,382.5348,382.5348,384.5338,practice2,j,1,0,12,12,8,1,1,bottom_left,neutral,threatening,0.4844,,,,,,,,,,,,,,,,,
,,,,,924766,m,y,r,n,14,0,2025-04-05_11h20.31.007,VisualSearchFaces,2024.2.4,MacIntel,121.9512195,,,,,,,,385.5365,385.643,385.6431,387.6431,practice2,j,0,0,13,13,36,1,0,top_left,threatening,no_target,0.3078,,,,,,,,,,,,,,,,,
,,,,,924766,m,y,r,n,14,0,2025-04-05_11h20.31.007,VisualSearchFaces,2024.2.4,MacIntel,121.9512195,,,,,,,,388.6444,388.7515,388.7515,390.7515,practice2,j,1,0,14,14,18,1,1,bottom_left,threatening,neutral,0.4263,,,,,,,,,,,,,,,,,
,,,,,924766,m,y,r,n,14,0,2025-04-05_11h20.31.007,VisualSearchFaces,2024.2.4,MacIntel,121.9512195,,,,,,,,391.753,391.8597,391.8598,393.8596,practice2,f,1,0,15,15,29,1,0,bottom_right,neutral,no_target,0.5168,,,,,,,,,,,,,,,,,
,,,,,924766,m,y,r,n,14,0,2025-04-05_11h20.31.007,VisualSearchFaces,2024.2.4,MacIntel,121.9512195,,,,,,,,394.8605,394.9598,394.9599,396.959,practice2,j,1,0,16,16,7,1,1,top_right,neutral,threatening,0.451,,,,,,,,,,,,,,,,,
,,,,,924766,m,y,r,n,14,0,2025-04-05_11h20.31.007,VisualSearchFaces,2024.2.4,MacIntel,121.9512195,,,,,,,,397.9609,398.068,398.0681,400.0679,practice2,f,1,0,17,17,28,1,0,bottom_left,neutral,no_target,0.6032,,,,,,,,,,,,,,,,,
,,,,,924766,m,y,r,n,14,0,2025-04-05_11h20.31.007,VisualSearchFaces,2024.2.4,MacIntel,121.9512195,,,,,,,,401.069,401.1681,401.1682,403.167,practice2,j,0,0,18,18,35,1,0,centre,threatening,no_target,0.4096,,,,,,,,,,,,,,,,,
,,,,,924766,m,y,r,n,14,0,2025-04-05_11h20.31.007,VisualSearchFaces,2024.2.4,MacIntel,121.9512195,,,,,,,,404.169,404.2763,404.2764,406.2764,practice2,f,1,0,19,19,31,1,0,top_left,friendly,no_target,0.7927,,,,,,,,,,,,,,,,,
,,,,,924766,m,y,r,n,14,0,2025-04-05_11h20.31.007,VisualSearchFaces,2024.2.4,MacIntel,121.9512195,,,,,,,,407.2778,407.3847,407.3847,409.385,practice2,f,1,0,20,20,24,1,0,bottom_right,neutral,no_target,0.6137,,,,,,,,,,,,,,,,,
,,,,,924766,m,y,r,n,14,0,2025-04-05_11h20.31.007,VisualSearchFaces,2024.2.4,MacIntel,121.9512195,,,,,,,,410.386,410.4932,410.4933,412.493,practice2,j,1,0,21,21,5,1,1,centre,neutral,threatening,0.4346,,,,,,,,,,,,,,,,,
,,,,,924766,m,y,r,n,14,0,2025-04-05_11h20.31.007,VisualSearchFaces,2024.2.4,MacIntel,121.9512195,,,,,,,,413.4944,413.6015,413.6015,415.6013,practice2,f,1,0,22,22,34,1,0,bottom_right,friendly,no_target,1.4828,,,,,,,,,,,,,,,,,
,,,,,924766,m,y,r,n,14,0,2025-04-05_11h20.31.007,VisualSearchFaces,2024.2.4,MacIntel,121.9512195,,,,,,,,416.6029,416.7095,416.7096,418.7095,practice2,j,0,0,23,23,38,1,0,bottom_left,threatening,no_target,0.4827,,,,,,,,,,,,,,,,,
,,,,,924766,m,y,r,n,14,0,2025-04-05_11h20.31.007,VisualSearchFaces,2024.2.4,MacIntel,121.9512195,,,,,,,,419.711,419.8179,419.818,421.8178,practice2,f,1,0,24,24,32,1,0,top_right,friendly,no_target,0.7667,,,,,,,,,,,,,,,,,
,,,,,924766,m,y,r,n,14,0,2025-04-05_11h20.31.007,VisualSearchFaces,2024.2.4,MacIntel,121.9512195,,,,,,,,422.8192,422.9253,422.9254,424.9262,practice2,j,1,0,25,25,15,1,1,centre,threatening,neutral,1.3174,,,,,,,,,,,,,,,,,
,,,,,924766,m,y,r,n,14,0,2025-04-05_11h20.31.007,VisualSearchFaces,2024.2.4,MacIntel,121.9512195,,,,,,,,425.9273,426.0345,426.0346,428.0335,practice2,f,1,0,26,26,21,1,0,top_left,neutral,no_target,0.7424,,,,,,,,,,,,,,,,,
,,,,,924766,m,y,r,n,14,0,2025-04-05_11h20.31.007,VisualSearchFaces,2024.2.4,MacIntel,121.9512195,,,,,,,,429.0363,429.1428,429.1428,431.1419,practice2,f,1,0,27,27,30,1,0,centre,friendly,no_target,0.7842,,,,,,,,,,,,,,,,,
,,,,,924766,m,y,r,n,14,0,2025-04-05_11h20.31.007,VisualSearchFaces,2024.2.4,MacIntel,121.9512195,,,,,,,,432.1455,432.2511,432.2512,434.2511,practice2,f,1,0,28,28,37,1,0,top_right,threatening,no_target,1.3348,,,,,,,,,,,,,,,,,
,,,,,924766,m,y,r,n,14,0,2025-04-05_11h20.31.007,VisualSearchFaces,2024.2.4,MacIntel,121.9512195,,,,,,,,435.2532,435.3594,435.3595,437.3585,practice2,j,1,0,29,29,17,1,1,top_right,threatening,neutral,0.8331,,,,,,,,,,,,,,,,,
,,,,,924766,m,y,r,n,14,0,2025-04-05_11h20.31.007,VisualSearchFaces,2024.2.4,MacIntel,121.9512195,,,,,,,,438.3598,438.4587,438.4588,440.4596,practice2,j,1,0,30,30,3,1,1,bottom_left,neutral,friendly,0.6597,,,,,,,,,,,,,,,,,
,,,,,924766,m,y,r,n,14,0,2025-04-05_11h20.31.007,VisualSearchFaces,2024.2.4,MacIntel,121.9512195,,,,,,,,441.4606,441.5678,441.5679,443.5678,practice2,f,1,0,31,31,20,1,0,centre,neutral,no_target,0.9349,,,,,,,,,,,,,,,,,
,,,,,924766,m,y,r,n,14,0,2025-04-05_11h20.31.007,VisualSearchFaces,2024.2.4,MacIntel,121.9512195,,,,,,,,444.5688,444.6761,444.6762,446.6761,practice2,f,1,0,32,32,22,1,0,top_right,neutral,no_target,0.5074,,,,,,,,,,,,,,,,,
,,,,,924766,m,y,r,n,14,0,2025-04-05_11h20.31.007,VisualSearchFaces,2024.2.4,MacIntel,121.9512195,,,,,,,,447.6766,447.7761,447.7761,449.776,practice2,j,1,0,33,33,12,1,1,top_right,friendly,neutral,0.5655,,,,,,,,,,,,,,,,,
,,,,,924766,m,y,r,n,14,0,2025-04-05_11h20.31.007,VisualSearchFaces,2024.2.4,MacIntel,121.9512195,,,,,,,,450.7773,450.8845,450.8846,452.8845,practice2,j,1,0,34,34,11,1,1,top_left,friendly,neutral,0.6923,,,,,,,,,,,,,,,,,
,,,,,924766,m,y,r,n,14,0,2025-04-05_11h20.31.007,VisualSearchFaces,2024.2.4,MacIntel,121.9512195,,,,,,,,453.8858,453.9927,453.9927,455.993,practice2,f,1,0,35,35,26,1,0,top_left,neutral,no_target,0.5829,,,,,,,,,,,,,,,,,
,,,,,924766,m,y,r,n,14,0,2025-04-05_11h20.31.007,VisualSearchFaces,2024.2.4,MacIntel,121.9512195,,,,,,,,456.9937,457.0927,457.0928,459.0928,practice2,f,1,0,36,36,23,1,0,bottom_left,neutral,no_target,0.5597,,,,,,,,,,,,,,,,,
,,,,,924766,m,y,r,n,14,0,2025-04-05_11h20.31.007,VisualSearchFaces,2024.2.4,MacIntel,121.9512195,,,,,,,,460.0939,460.2011,460.2012,462.2005,practice2,f,1,0,37,37,25,1,0,centre,neutral,no_target,0.4756,,,,,,,,,,,,,,,,,
,,,,,924766,m,y,r,n,14,0,2025-04-05_11h20.31.007,VisualSearchFaces,2024.2.4,MacIntel,121.9512195,,,,,,,,463.2022,463.3093,463.3094,465.3087,practice2,j,1,0,38,38,1,1,1,top_left,neutral,friendly,0.5495,,,,,,,,,,,,,,,,,
,,,,,924766,m,y,r,n,14,0,2025-04-05_11h20.31.007,VisualSearchFaces,2024.2.4,MacIntel,121.9512195,,,,,,,,466.3105,466.4168,466.4169,468.4176,practice2,j,1,0,39,39,13,1,1,bottom_left,friendly,neutral,0.7351,,,,,,,,,,,,,,,,,
,,,,,924766,m,y,r,n,14,0,2025-04-05_11h20.31.007,VisualSearchFaces,2024.2.4,MacIntel,121.9512195,,,509.3206,526.6086,space,17.2731,,527.6101,527.7092,527.7092,529.7081,block1,j,1,0,0,0,8,1,1,bottom_left,neutral,threatening,0.7412,,468.4189,509.3179,space,40.8854,,,,,,,,,,,,
,,,,,924766,m,y,r,n,14,0,2025-04-05_11h20.31.007,VisualSearchFaces,2024.2.4,MacIntel,121.9512195,,,,,,,,530.7105,530.8091,530.8091,532.8092,block1,j,1,0,1,1,15,1,1,centre,threatening,neutral,0.383,,,,,,,,,,,,,,,,,
,,,,,924766,m,y,r,n,14,0,2025-04-05_11h20.31.007,VisualSearchFaces,2024.2.4,MacIntel,121.9512195,,,,,,,,533.81,533.9091,533.9092,535.909,block1,j,0,0,2,2,38,1,0,bottom_left,threatening,no_target,0.3003,,,,,,,,,,,,,,,,,
,,,,,924766,m,y,r,n,14,0,2025-04-05_11h20.31.007,VisualSearchFaces,2024.2.4,MacIntel,121.9512195,,,,,,,,536.9116,537.0173,537.0174,539.0172,block1,f,1,0,3,3,23,1,0,bottom_left,neutral,no_target,0.3991,,,,,,,,,,,,,,,,,
,,,,,924766,m,y,r,n,14,0,2025-04-05_11h20.31.007,VisualSearchFaces,2024.2.4,MacIntel,121.9512195,,,,,,,,540.0184,540.1259,540.1259,542.1254,block1,f,1,0,4,4,27,1,0,top_right,neutral,no_target,0.4497,,,,,,,,,,,,,,,,,
,,,,,924766,m,y,r,n,14,0,2025-04-05_11h20.31.007,VisualSearchFaces,2024.2.4,MacIntel,121.9512195,,,,,,,,543.1272,543.2342,543.2342,545.234,block1,f,1,0,5,5,21,1,0,top_left,neutral,no_target,0.4928,,,,,,,,,,,,,,,,,
,,,,,924766,m,y,r,n,14,0,2025-04-05_11h20.31.007,VisualSearchFaces,2024.2.4,MacIntel,121.9512195,,,,,,,,546.2364,546.3423,546.3423,548.3423,block1,f,1,0,6,6,25,1,0,centre,neutral,no_target,0.4833,,,,,,,,,,,,,,,,,
,,,,,924766,m,y,r,n,14,0,2025-04-05_11h20.31.007,VisualSearchFaces,2024.2.4,MacIntel,121.9512195,,,,,,,,549.343,549.4418,549.4419,551.4424,block1,j,1,0,7,7,3,1,1,bottom_left,neutral,friendly,0.4752,,,,,,,,,,,,,,,,,
,,,,,924766,m,y,r,n,14,0,2025-04-05_11h20.31.007,VisualSearchFaces,2024.2.4,MacIntel,121.9512195,,,,,,,,552.4449,552.5507,552.5507,554.5505,block1,j,1,0,8,8,16,1,1,top_left,threatening,neutral,0.3495,,,,,,,,,,,,,,,,,
,,,,,924766,m,y,r,n,14,0,2025-04-05_11h20.31.007,VisualSearchFaces,2024.2.4,MacIntel,121.9512195,,,,,,,,555.5515,555.6507,555.6508,557.6507,block1,j,0,0,9,9,35,1,0,centre,threatening,no_target,0.3679,,,,,,,,,,,,,,,,,
,,,,,924766,m,y,r,n,14,0,2025-04-05_11h20.31.007,VisualSearchFaces,2024.2.4,MacIntel,121.9512195,,,,,,,,558.6513,558.7506,558.7506,560.7505,block1,j,1,0,10,10,11,1,1,top_left,friendly,neutral,0.3936,,,,,,,,,,,,,,,,,
,,,,,924766,m,y,r,n,14,0,2025-04-05_11h20.31.007,VisualSearchFaces,2024.2.4,MacIntel,121.9512195,,,,,,,,561.7506,561.8505,561.8506,563.8506,block1,j,0,0,11,11,32,1,0,top_right,friendly,no_target,0.5508,,,,,,,,,,,,,,,,,
,,,,,924766,m,y,r,n,14,0,2025-04-05_11h20.31.007,VisualSearchFaces,2024.2.4,MacIntel,121.9512195,,,,,,,,564.8517,564.9588,564.9589,566.9587,block1,f,1,0,12,12,28,1,0,bottom_left,neutral,no_target,0.5748,,,,,,,,,,,,,,,,,
,,,,,924766,m,y,r,n,14,0,2025-04-05_11h20.31.007,VisualSearchFaces,2024.2.4,MacIntel,121.9512195,,,,,,,,567.959,568.059,568.059,570.0587,block1,f,1,0,13,13,22,1,0,top_right,neutral,no_target,0.4676,,,,,,,,,,,,,,,,,
,,,,,924766,m,y,r,n,14,0,2025-04-05_11h20.31.007,VisualSearchFaces,2024.2.4,MacIntel,121.9512195,,,,,,,,571.0604,571.1673,571.1673,573.1671,block1,j,1,0,14,14,12,1,1,top_right,friendly,neutral,0.5087,,,,,,,,,,,,,,,,,
,,,,,924766,m,y,r,n,14,0,2025-04-05_11h20.31.007,VisualSearchFaces,2024.2.4,MacIntel,121.9512195,,,,,,,,574.1686,574.2671,574.2671,576.267,block1,f,1,0,15,15,29,1,0,bottom_right,neutral,no_target,0.5835,,,,,,,,,,,,,,,,,
,,,,,924766,m,y,r,n,14,0,2025-04-05_11h20.31.007,VisualSearchFaces,2024.2.4,MacIntel,121.9512195,,,,,,,,577.2684,577.3754,577.3754,579.3754,block1,f,1,0,16,16,26,1,0,top_left,neutral,no_target,0.4947,,,,,,,,,,,,,,,,,
,,,,,924766,m,y,r,n,14,0,2025-04-05_11h20.31.007,VisualSearchFaces,2024.2.4,MacIntel,121.9512195,,,,,,,,580.3768,580.4839,580.4839,582.4839,block1,j,0,0,17,17,39,1,0,bottom_right,threatening,no_target,0.4415,,,,,,,,,,,,,,,,,
,,,,,924766,m,y,r,n,14,0,2025-04-05_11h20.31.007,VisualSearchFaces,2024.2.4,MacIntel,121.9512195,,,,,,,,583.4852,583.5923,583.5924,585.5921,block1,j,1,0,18,18,18,1,1,bottom_left,threatening,neutral,0.4231,,,,,,,,,,,,,,,,,
,,,,,924766,m,y,r,n,14,0,2025-04-05_11h20.31.007,VisualSearchFaces,2024.2.4,MacIntel,121.9512195,,,,,,,,586.5937,586.6994,586.6996,588.7004,block1,j,0,0,19,19,33,1,0,bottom_left,friendly,no_target,0.4546,,,,,,,,,,,,,,,,,
,,,,,924766,m,y,r,n,14,0,2025-04-05_11h20.31.007,VisualSearchFaces,2024.2.4,MacIntel,121.9512195,,,,,,,,589.7031,589.8079,589.808,591.8086,block1,j,1,0,20,20,0,1,1,centre,neutral,friendly,0.4264,,,,,,,,,,,,,,,,,
,,,,,924766,m,y,r,n,14,0,2025-04-05_11h20.31.007,VisualSearchFaces,2024.2.4,MacIntel,121.9512195,,,,,,,,592.8102,592.9163,592.9164,594.9171,block1,j,1,0,21,21,6,1,1,top_left,neutral,threatening,0.4632,,,,,,,,,,,,,,,,,
,,,,,924766,m,y,r,n,14,0,2025-04-05_11h20.31.007,VisualSearchFaces,2024.2.4,MacIntel,121.9512195,,,,,,,,595.9182,596.0173,596.0173,598.0171,block1,j,1,0,22,22,4,1,1,bottom_right,neutral,friendly,0.4871,,,,,,,,,,,,,,,,,
,,,,,924766,m,y,r,n,14,0,2025-04-05_11h20.31.007,VisualSearchFaces,2024.2.4,MacIntel,121.9512195,,,,,,,,599.0187,599.1254,599.1255,601.1254,block1,j,0,0,23,23,20,1,0,centre,neutral,no_target,0.4434,,,,,,,,,,,,,,,,,
,,,,,924766,m,y,r,n,14,0,2025-04-05_11h20.31.007,VisualSearchFaces,2024.2.4,MacIntel,121.9512195,,,,,,,,602.127,602.2338,602.2339,604.2335,block1,j,1,0,24,24,19,1,1,bottom_right,threatening,neutral,0.4672,,,,,,,,,,,,,,,,,
,,,,,924766,m,y,r,n,14,0,2025-04-05_11h20.31.007,VisualSearchFaces,2024.2.4,MacIntel,121.9512195,,,,,,,,605.2351,605.3414,605.3415,607.3412,block1,j,1,0,25,25,9,1,1,bottom_right,neutral,threatening,0.3848,,,,,,,,,,,,,,,,,
,,,,,924766,m,y,r,n,14,0,2025-04-05_11h20.31.007,VisualSearchFaces,2024.2.4,MacIntel,121.9512195,,,,,,,,608.3442,608.4505,608.4506,610.4505,block1,f,1,0,26,26,37,1,0,top_right,threatening,no_target,0.7505,,,,,,,,,,,,,,,,,
,,,,,924766,m,y,r,n,14,0,2025-04-05_11h20.31.007,VisualSearchFaces,2024.2.4,MacIntel,121.9512195,,,,,,,,611.4524,611.5587,611.5588,613.5587,block1,j,0,0,27,27,36,1,0,top_left,threatening,no_target,0.582,,,,,,,,,,,,,,,,,
,,,,,924766,m,y,r,n,14,0,2025-04-05_11h20.31.007,VisualSearchFaces,2024.2.4,MacIntel,121.9512195,,,,,,,,614.5604,614.6669,614.667,616.6661,block1,j,1,0,28,28,10,1,1,centre,friendly,neutral,0.3258,,,,,,,,,,,,,,,,,
,,,,,924766,m,y,r,n,14,0,2025-04-05_11h20.31.007,VisualSearchFaces,2024.2.4,MacIntel,121.9512195,,,,,,,,617.6681,617.7743,617.7745,619.7744,block1,j,0,0,29,29,34,1,0,bottom_right,friendly,no_target,0.2603,,,,,,,,,,,,,,,,,
,,,,,924766,m,y,r,n,14,0,2025-04-05_11h20.31.007,VisualSearchFaces,2024.2.4,MacIntel,121.9512195,,,,,,,,620.7766,620.8836,620.8837,622.8834,block1,j,1,0,30,30,1,1,1,top_left,neutral,friendly,0.5512,,,,,,,,,,,,,,,,,
,,,,,924766,m,y,r,n,14,0,2025-04-05_11h20.31.007,VisualSearchFaces,2024.2.4,MacIntel,121.9512195,,,,,,,,623.8852,623.9921,623.9922,625.9911,block1,j,1,0,31,31,7,1,1,top_right,neutral,threatening,0.3665,,,,,,,,,,,,,,,,,
,,,,,924766,m,y,r,n,14,0,2025-04-05_11h20.31.007,VisualSearchFaces,2024.2.4,MacIntel,121.9512195,,,,,,,,626.9934,627.1004,627.1004,629.1002,block1,f,1,0,32,32,24,1,0,bottom_right,neutral,no_target,0.5247,,,,,,,,,,,,,,,,,
,,,,,924766,m,y,r,n,14,0,2025-04-05_11h20.31.007,VisualSearchFaces,2024.2.4,MacIntel,121.9512195,,,,,,,,630.1016,630.2082,630.2082,632.2086,block1,j,1,0,33,33,17,1,1,top_right,threatening,neutral,0.3612,,,,,,,,,,,,,,,,,
,,,,,924766,m,y,r,n,14,0,2025-04-05_11h20.31.007,VisualSearchFaces,2024.2.4,MacIntel,121.9512195,,,,,,,,633.2106,633.3169,633.3169,635.3168,block1,j,1,0,34,34,2,1,1,top_right,neutral,friendly,0.4292,,,,,,,,,,,,,,,,,
,,,,,924766,m,y,r,n,14,0,2025-04-05_11h20.31.007,VisualSearchFaces,2024.2.4,MacIntel,121.9512195,,,,,,,,636.3177,636.4171,636.4171,638.4168,block1,j,1,0,35,35,5,1,1,centre,neutral,threatening,0.325,,,,,,,,,,,,,,,,,
,,,,,924766,m,y,r,n,14,0,2025-04-05_11h20.31.007,VisualSearchFaces,2024.2.4,MacIntel,121.9512195,,,,,,,,639.4179,639.5245,639.5245,641.525,block1,j,0,0,36,36,31,1,0,top_left,friendly,no_target,0.651,,,,,,,,,,,,,,,,,
,,,,,924766,m,y,r,n,14,0,2025-04-05_11h20.31.007,VisualSearchFaces,2024.2.4,MacIntel,121.9512195,,,,,,,,642.5276,642.6326,642.6327,644.6335,block1,j,0,0,37,37,30,1,0,centre,friendly,no_target,0.7761,,,,,,,,,,,,,,,,,
,,,,,924766,m,y,r,n,14,0,2025-04-05_11h20.31.007,VisualSearchFaces,2024.2.4,MacIntel,121.9512195,,,,,,,,645.636,645.742,645.7421,647.7415,block1,j,1,0,38,38,14,1,1,bottom_right,friendly,neutral,0.4509,,,,,,,,,,,,,,,,,
,,,,,924766,m,y,r,n,14,0,2025-04-05_11h20.31.007,VisualSearchFaces,2024.2.4,MacIntel,121.9512195,,,,,,,,648.743,648.8498,648.8499,650.8502,block1,j,1,0,39,39,13,1,1,bottom_left,friendly,neutral,0.9248,,,,,,,,,,,,,,,,,
,,,,,924766,m,y,r,n,14,0,2025-04-05_11h20.31.007,VisualSearchFaces,2024.2.4,MacIntel,121.9512195,,,,,,,,651.8513,651.9585,651.9587,653.9585,block1,f,1,1,0,40,28,1,0,bottom_left,neutral,no_target,0.5833,,,,,,,,,,,,,,,,,
,,,,,924766,m,y,r,n,14,0,2025-04-05_11h20.31.007,VisualSearchFaces,2024.2.4,MacIntel,121.9512195,,,,,,,,654.9599,655.0668,655.0668,657.0668,block1,f,1,1,1,41,26,1,0,top_left,neutral,no_target,0.5222,,,,,,,,,,,,,,,,,
,,,,,924766,m,y,r,n,14,0,2025-04-05_11h20.31.007,VisualSearchFaces,2024.2.4,MacIntel,121.9512195,,,,,,,,658.0679,658.1752,658.1753,660.1752,block1,j,1,1,2,42,16,1,1,top_left,threatening,neutral,0.509,,,,,,,,,,,,,,,,,
,,,,,924766,m,y,r,n,14,0,2025-04-05_11h20.31.007,VisualSearchFaces,2024.2.4,MacIntel,121.9512195,,,,,,,,661.177,661.2834,661.2835,663.2834,block1,f,1,1,3,43,29,1,0,bottom_right,neutral,no_target,0.6395,,,,,,,,,,,,,,,,,
,,,,,924766,m,y,r,n,14,0,2025-04-05_11h20.31.007,VisualSearchFaces,2024.2.4,MacIntel,121.9512195,,,,,,,,664.2842,664.3918,664.3918,666.3918,block1,j,1,1,4,44,18,1,1,bottom_left,threatening,neutral,0.7555,,,,,,,,,,,,,,,,,
,,,,,924766,m,y,r,n,14,0,2025-04-05_11h20.31.007,VisualSearchFaces,2024.2.4,MacIntel,121.9512195,,,,,,,,667.3935,667.5002,667.5002,669.5,block1,j,1,1,5,45,10,1,1,centre,friendly,neutral,0.6589,,,,,,,,,,,,,,,,,
,,,,,924766,m,y,r,n,14,0,2025-04-05_11h20.31.007,VisualSearchFaces,2024.2.4,MacIntel,121.9512195,,,,,,,,670.5015,670.6076,670.6076,672.6075,block1,j,1,1,6,46,19,1,1,bottom_right,threatening,neutral,0.4616,,,,,,,,,,,,,,,,,
,,,,,924766,m,y,r,n,14,0,2025-04-05_11h20.31.007,VisualSearchFaces,2024.2.4,MacIntel,121.9512195,,,,,,,,673.609,673.7084,673.7085,675.708,block1,f,1,1,7,47,24,1,0,bottom_right,neutral,no_target,0.6578,,,,,,,,,,,,,,,,,
,,,,,924766,m,y,r,n,14,0,2025-04-05_11h20.31.007,VisualSearchFaces,2024.2.4,MacIntel,121.9512195,,,,,,,,676.71,676.8167,676.8168,678.8168,block1,j,1,1,8,48,6,1,1,top_left,neutral,threatening,0.7004,,,,,,,,,,,,,,,,,
,,,,,924766,m,y,r,n,14,0,2025-04-05_11h20.31.007,VisualSearchFaces,2024.2.4,MacIntel,121.9512195,,,,,,,,679.8193,679.9249,679.925,681.9249,block1,j,1,1,9,49,14,1,1,bottom_right,friendly,neutral,0.4924,,,,,,,,,,,,,,,,,
,,,,,924766,m,y,r,n,14,0,2025-04-05_11h20.31.007,VisualSearchFaces,2024.2.4,MacIntel,121.9512195,,,,,,,,682.926,683.0325,683.0325,685.0324,block1,j,1,1,10,50,15,1,1,centre,threatening,neutral,0.4015,,,,,,,,,,,,,,,,,
,,,,,924766,m,y,r,n,14,0,2025-04-05_11h20.31.007,VisualSearchFaces,2024.2.4,MacIntel,121.9512195,,,,,,,,686.0351,686.1416,686.1417,688.1417,block1,f,1,1,11,51,27,1,0,top_right,neutral,no_target,0.5596,,,,,,,,,,,,,,,,,
,,,,,924766,m,y,r,n,14,0,2025-04-05_11h20.31.007,VisualSearchFaces,2024.2.4,MacIntel,121.9512195,,,,,,,,689.143,689.25,689.25,691.2459,block1,j,1,1,12,52,17,1,1,top_right,threatening,neutral,0.5437,,,,,,,,,,,,,,,,,
,,,,,924766,m,y,r,n,14,0,2025-04-05_11h20.31.007,VisualSearchFaces,2024.2.4,MacIntel,121.9512195,,,,,,,,692.2483,692.3538,692.3538,694.3538,block1,j,1,1,13,53,8,1,1,bottom_left,neutral,threatening,0.8092,,,,,,,,,,,,,,,,,
,,,,,924766,m,y,r,n,14,0,2025-04-05_11h20.31.007,VisualSearchFaces,2024.2.4,MacIntel,121.9512195,,,,,,,,695.3551,695.4624,695.4624,697.4622,block1,j,1,1,14,54,4,1,1,bottom_right,neutral,friendly,0.617,,,,,,,,,,,,,,,,,
,,,,,924766,m,y,r,n,14,0,2025-04-05_11h20.31.007,VisualSearchFaces,2024.2.4,MacIntel,121.9512195,,,,,,,,698.4628,698.5624,698.5624,700.5624,block1,j,1,1,15,55,12,1,1,top_right,friendly,neutral,0.4417,,,,,,,,,,,,,,,,,
,,,,,924766,m,y,r,n,14,0,2025-04-05_11h20.31.007,VisualSearchFaces,2024.2.4,MacIntel,121.9512195,,,,,,,,701.5643,701.6707,701.6708,703.6707,block1,f,1,1,16,56,20,1,0,centre,neutral,no_target,0.616,,,,,,,,,,,,,,,,,
,,,,,924766,m,y,r,n,14,0,2025-04-05_11h20.31.007,VisualSearchFaces,2024.2.4,MacIntel,121.9512195,,,,,,,,704.6718,704.7789,704.779,706.7781,block1,j,1,1,17,57,1,1,1,top_left,neutral,friendly,0.3876,,,,,,,,,,,,,,,,,
,,,,,924766,m,y,r,n,14,0,2025-04-05_11h20.31.007,VisualSearchFaces,2024.2.4,MacIntel,121.9512195,,,,,,,,707.7801,707.8783,707.8784,709.8791,block1,f,1,1,18,58,32,1,0,top_right,friendly,no_target,0.7642,,,,,,,,,,,,,,,,,
,,,,,924766,m,y,r,n,14,0,2025-04-05_11h20.31.007,VisualSearchFaces,2024.2.4,MacIntel,121.9512195,,,,,,,,710.8805,710.979,710.979,712.9752,block1,j,0,1,19,59,39,1,0,bottom_right,threatening,no_target,0.7535,,,,,,,,,,,,,,,,,
,,,,,924766,m,y,r,n,14,0,2025-04-05_11h20.31.007,VisualSearchFaces,2024.2.4,MacIntel,121.9512195,,,,,,,,713.9762,714.083,714.0832,716.0831,block1,j,1,1,20,60,11,1,1,top_left,friendly,neutral,0.4994,,,,,,,,,,,,,,,,,
,,,,,924766,m,y,r,n,14,0,2025-04-05_11h20.31.007,VisualSearchFaces,2024.2.4,MacIntel,121.9512195,,,,,,,,717.0839,717.1832,717.1833,719.1822,block1,j,0,1,21,61,37,1,0,top_right,threatening,no_target,0.5964,,,,,,,,,,,,,,,,,
,,,,,924766,m,y,r,n,14,0,2025-04-05_11h20.31.007,VisualSearchFaces,2024.2.4,MacIntel,121.9512195,,,,,,,,720.1839,720.283,720.2831,722.2788,block1,f,1,1,22,62,36,1,0,top_left,threatening,no_target,0.8299,,,,,,,,,,,,,,,,,
,,,,,924766,m,y,r,n,14,0,2025-04-05_11h20.31.007,VisualSearchFaces,2024.2.4,MacIntel,121.9512195,,,,,,,,723.2802,723.387,723.387,725.3875,block1,j,1,1,23,63,7,1,1,top_right,neutral,threatening,0.4255,,,,,,,,,,,,,,,,,
,,,,,924766,m,y,r,n,14,0,2025-04-05_11h20.31.007,VisualSearchFaces,2024.2.4,MacIntel,121.9512195,,,,,,,,726.3885,726.4957,726.4957,728.4958,block1,f,1,1,24,64,34,1,0,bottom_right,friendly,no_target,1.018,,,,,,,,,,,,,,,,,
,,,,,924766,m,y,r,n,14,0,2025-04-05_11h20.31.007,VisualSearchFaces,2024.2.4,MacIntel,121.9512195,,,,,,,,729.4967,729.6039,729.6039,731.6033,block1,j,1,1,25,65,0,1,1,centre,neutral,friendly,0.6324,,,,,,,,,,,,,,,,,
,,,,,924766,m,y,r,n,14,0,2025-04-05_11h20.31.007,VisualSearchFaces,2024.2.4,MacIntel,121.9512195,,,,,,,,732.6047,732.704,732.7041,734.7039,block1,j,1,1,26,66,5,1,1,centre,neutral,threatening,0.3833,,,,,,,,,,,,,,,,,
,,,,,924766,m,y,r,n,14,0,2025-04-05_11h20.31.007,VisualSearchFaces,2024.2.4,MacIntel,121.9512195,,,,,,,,735.7053,735.8123,735.8125,737.8122,block1,j,1,1,27,67,2,1,1,top_right,neutral,friendly,0.3914,,,,,,,,,,,,,,,,,
,,,,,924766,m,y,r,n,14,0,2025-04-05_11h20.31.007,VisualSearchFaces,2024.2.4,MacIntel,121.9512195,,,,,,,,738.8134,738.9123,738.9123,740.9123,block1,f,1,1,28,68,30,1,0,centre,friendly,no_target,0.7253,,,,,,,,,,,,,,,,,
,,,,,924766,m,y,r,n,14,0,2025-04-05_11h20.31.007,VisualSearchFaces,2024.2.4,MacIntel,121.9512195,,,,,,,,741.9136,742.0122,742.0123,744.0122,block1,j,0,1,29,69,22,1,0,top_right,neutral,no_target,1.0255,,,,,,,,,,,,,,,,,
,,,,,924766,m,y,r,n,14,0,2025-04-05_11h20.31.007,VisualSearchFaces,2024.2.4,MacIntel,121.9512195,,,,,,,,745.0133,745.1206,745.1207,747.1205,block1,j,1,1,30,70,9,1,1,bottom_right,neutral,threatening,0.6503,,,,,,,,,,,,,,,,,
,,,,,924766,m,y,r,n,14,0,2025-04-05_11h20.31.007,VisualSearchFaces,2024.2.4,MacIntel,121.9512195,,,,,,,,748.1225,748.228,748.2281,750.228,block1,j,1,1,31,71,3,1,1,bottom_left,neutral,friendly,0.6007,,,,,,,,,,,,,,,,,
,,,,,924766,m,y,r,n,14,0,2025-04-05_11h20.31.007,VisualSearchFaces,2024.2.4,MacIntel,121.9512195,,,,,,,,751.2303,751.3289,751.3289,753.3284,block1,f,1,1,32,72,21,1,0,top_left,neutral,no_target,0.7753,,,,,,,,,,,,,,,,,
,,,,,924766,m,y,r,n,14,0,2025-04-05_11h20.31.007,VisualSearchFaces,2024.2.4,MacIntel,121.9512195,,,,,,,,754.3299,754.4363,754.4363,756.437,block1,f,1,1,33,73,23,1,0,bottom_left,neutral,no_target,0.567,,,,,,,,,,,,,,,,,
,,,,,924766,m,y,r,n,14,0,2025-04-05_11h20.31.007,VisualSearchFaces,2024.2.4,MacIntel,121.9512195,,,,,,,,757.438,757.5452,757.5452,759.5456,block1,j,0,1,34,74,35,1,0,centre,threatening,no_target,1.751,,,,,,,,,,,,,,,,,
,,,,,924766,m,y,r,n,14,0,2025-04-05_11h20.31.007,VisualSearchFaces,2024.2.4,MacIntel,121.9512195,,,,,,,,760.548,760.6537,760.6538,762.6538,block1,j,0,1,35,75,31,1,0,top_left,friendly,no_target,1.1361,,,,,,,,,,,,,,,,,
,,,,,924766,m,y,r,n,14,0,2025-04-05_11h20.31.007,VisualSearchFaces,2024.2.4,MacIntel,121.9512195,,,,,,,,763.6544,763.7538,763.7539,765.7527,block1,j,0,1,36,76,38,1,0,bottom_left,threatening,no_target,0.5492,,,,,,,,,,,,,,,,,
,,,,,924766,m,y,r,n,14,0,2025-04-05_11h20.31.007,VisualSearchFaces,2024.2.4,MacIntel,121.9512195,,,,,,,,766.7564,766.8612,766.8613,768.8622,block1,f,1,1,37,77,33,1,0,bottom_left,friendly,no_target,0.9022,,,,,,,,,,,,,,,,,
,,,,,924766,m,y,r,n,14,0,2025-04-05_11h20.31.007,VisualSearchFaces,2024.2.4,MacIntel,121.9512195,,,,,,,,769.8637,769.9704,769.9704,771.9698,block1,j,1,1,38,78,13,1,1,bottom_left,friendly,neutral,1.1836,,,,,,,,,,,,,,,,,
,,,,,924766,m,y,r,n,14,0,2025-04-05_11h20.31.007,VisualSearchFaces,2024.2.4,MacIntel,121.9512195,,,,,,,,772.9719,773.0788,773.0789,775.0786,block1,f,1,1,39,79,25,1,0,centre,neutral,no_target,0.8752,,,,,,,,,,,,,,,,,
,,,,,924766,m,y,r,n,14,0,2025-04-05_11h20.31.007,VisualSearchFaces,2024.2.4,MacIntel,121.9512195,,,868.8814,875.2619,space,6.3701,,876.263,876.3692,876.3693,878.37,block2,j,1,0,0,0,14,1,1,bottom_right,friendly,neutral,0.4586,,775.0801,868.8787,space,93.7839,,,,,,,,,,,,
,,,,,924766,m,y,r,n,14,0,2025-04-05_11h20.31.007,VisualSearchFaces,2024.2.4,MacIntel,121.9512195,,,,,,,,879.3708,879.4773,879.4773,881.4782,block2,j,1,0,1,1,5,1,1,centre,neutral,threatening,0.4836,,,,,,,,,,,,,,,,,
,,,,,924766,m,y,r,n,14,0,2025-04-05_11h20.31.007,VisualSearchFaces,2024.2.4,MacIntel,121.9512195,,,,,,,,882.4796,882.5866,882.5866,884.5866,block2,f,1,0,2,2,37,1,0,top_right,threatening,no_target,0.867,,,,,,,,,,,,,,,,,
,,,,,924766,m,y,r,n,14,0,2025-04-05_11h20.31.007,VisualSearchFaces,2024.2.4,MacIntel,121.9512195,,,,,,,,885.5891,885.694,885.694,887.6947,block2,f,1,0,3,3,30,1,0,centre,friendly,no_target,0.7265,,,,,,,,,,,,,,,,,
,,,,,924766,m,y,r,n,14,0,2025-04-05_11h20.31.007,VisualSearchFaces,2024.2.4,MacIntel,121.9512195,,,,,,,,888.6965,888.8032,888.8032,890.8034,block2,j,1,0,4,4,19,1,1,bottom_right,threatening,neutral,0.4262,,,,,,,,,,,,,,,,,
,,,,,924766,m,y,r,n,14,0,2025-04-05_11h20.31.007,VisualSearchFaces,2024.2.4,MacIntel,121.9512195,,,,,,,,891.8046,891.9115,891.9116,893.9116,block2,f,1,0,5,5,33,1,0,bottom_left,friendly,no_target,0.8078,,,,,,,,,,,,,,,,,
,,,,,924766,m,y,r,n,14,0,2025-04-05_11h20.31.007,VisualSearchFaces,2024.2.4,MacIntel,121.9512195,,,,,,,,894.9126,895.0198,895.0199,897.0198,block2,f,1,0,6,6,25,1,0,centre,neutral,no_target,0.7375,,,,,,,,,,,,,,,,,
,,,,,924766,m,y,r,n,14,0,2025-04-05_11h20.31.007,VisualSearchFaces,2024.2.4,MacIntel,121.9512195,,,,,,,,898.0222,898.1283,898.1284,900.1271,block2,f,1,0,7,7,23,1,0,bottom_left,neutral,no_target,0.634,,,,,,,,,,,,,,,,,
,,,,,924766,m,y,r,n,14,0,2025-04-05_11h20.31.007,VisualSearchFaces,2024.2.4,MacIntel,121.9512195,,,,,,,,901.1292,901.2363,901.2363,903.2364,block2,j,0,0,8,8,32,1,0,top_right,friendly,no_target,0.4625,,,,,,,,,,,,,,,,,
,,,,,924766,m,y,r,n,14,0,2025-04-05_11h20.31.007,VisualSearchFaces,2024.2.4,MacIntel,121.9512195,,,,,,,,904.238,904.3448,904.3448,906.3447,block2,j,1,0,9,9,18,1,1,bottom_left,threatening,neutral,0.4829,,,,,,,,,,,,,,,,,
,,,,,924766,m,y,r,n,14,0,2025-04-05_11h20.31.007,VisualSearchFaces,2024.2.4,MacIntel,121.9512195,,,,,,,,907.3459,907.4522,907.4522,909.453,block2,j,1,0,10,10,12,1,1,top_right,friendly,neutral,0.5177,,,,,,,,,,,,,,,,,
,,,,,924766,m,y,r,n,14,0,2025-04-05_11h20.31.007,VisualSearchFaces,2024.2.4,MacIntel,121.9512195,,,,,,,,910.4541,910.5615,910.5616,912.5613,block2,f,0,0,11,11,10,1,1,centre,friendly,neutral,0.659,,,,,,,,,,,,,,,,,
,,,,,924766,m,y,r,n,14,0,2025-04-05_11h20.31.007,VisualSearchFaces,2024.2.4,MacIntel,121.9512195,,,,,,,,913.562,913.6615,913.6615,915.6613,block2,j,1,0,12,12,4,1,1,bottom_right,neutral,friendly,0.8829,,,,,,,,,,,,,,,,,
,,,,,924766,m,y,r,n,14,0,2025-04-05_11h20.31.007,VisualSearchFaces,2024.2.4,MacIntel,121.9512195,,,,,,,,916.6621,916.7616,916.7616,918.7613,block2,j,1,0,13,13,1,1,1,top_left,neutral,friendly,0.4169,,,,,,,,,,,,,,,,,
,,,,,924766,m,y,r,n,14,0,2025-04-05_11h20.31.007,VisualSearchFaces,2024.2.4,MacIntel,121.9512195,,,,,,,,919.7627,919.8687,919.8687,921.8688,block2,j,0,0,14,14,38,1,0,bottom_left,threatening,no_target,0.6916,,,,,,,,,,,,,,,,,
,,,,,924766,m,y,r,n,14,0,2025-04-05_11h20.31.007,VisualSearchFaces,2024.2.4,MacIntel,121.9512195,,,,,,,,922.8711,922.9781,922.9782,924.9778,block2,j,1,0,15,15,16,1,1,top_left,threatening,neutral,0.5003,,,,,,,,,,,,,,,,,
,,,,,924766,m,y,r,n,14,0,2025-04-05_11h20.31.007,VisualSearchFaces,2024.2.4,MacIntel,121.9512195,,,,,,,,925.9783,926.078,926.078,928.078,block2,j,1,0,16,16,3,1,1,bottom_left,neutral,friendly,0.3742,,,,,,,,,,,,,,,,,
,,,,,924766,m,y,r,n,14,0,2025-04-05_11h20.31.007,VisualSearchFaces,2024.2.4,MacIntel,121.9512195,,,,,,,,929.0794,929.1864,929.1864,931.1863,block2,f,1,0,17,17,21,1,0,top_left,neutral,no_target,0.618,,,,,,,,,,,,,,,,,
,,,,,924766,m,y,r,n,14,0,2025-04-05_11h20.31.007,VisualSearchFaces,2024.2.4,MacIntel,121.9512195,,,,,,,,932.1863,932.2864,932.2864,934.2864,block2,f,1,0,18,18,29,1,0,bottom_right,neutral,no_target,0.5568,,,,,,,,,,,,,,,,,
,,,,,924766,m,y,r,n,14,0,2025-04-05_11h20.31.007,VisualSearchFaces,2024.2.4,MacIntel,121.9512195,,,,,,,,935.2882,935.3944,935.3945,937.3948,block2,f,1,0,19,19,26,1,0,top_left,neutral,no_target,0.4419,,,,,,,,,,,,,,,,,
,,,,,924766,m,y,r,n,14,0,2025-04-05_11h20.31.007,VisualSearchFaces,2024.2.4,MacIntel,121.9512195,,,,,,,,938.396,938.5028,938.5029,940.5028,block2,j,1,0,20,20,7,1,1,top_right,neutral,threatening,0.404,,,,,,,,,,,,,,,,,
,,,,,924766,m,y,r,n,14,0,2025-04-05_11h20.31.007,VisualSearchFaces,2024.2.4,MacIntel,121.9512195,,,,,,,,941.5053,941.6108,941.6108,943.6107,block2,f,1,0,21,21,22,1,0,top_right,neutral,no_target,0.602,,,,,,,,,,,,,,,,,
,,,,,924766,m,y,r,n,14,0,2025-04-05_11h20.31.007,VisualSearchFaces,2024.2.4,MacIntel,121.9512195,,,,,,,,944.6132,944.7197,944.7197,946.7194,block2,f,1,0,22,22,27,1,0,top_right,neutral,no_target,0.3802,,,,,,,,,,,,,,,,,
,,,,,924766,m,y,r,n,14,0,2025-04-05_11h20.31.007,VisualSearchFaces,2024.2.4,MacIntel,121.9512195,,,,,,,,947.7207,947.8196,947.8196,949.8197,block2,j,1,0,23,23,6,1,1,top_left,neutral,threatening,0.3837,,,,,,,,,,,,,,,,,
,,,,,924766,m,y,r,n,14,0,2025-04-05_11h20.31.007,VisualSearchFaces,2024.2.4,MacIntel,121.9512195,,,,,,,,950.8209,950.9194,950.9194,952.9196,block2,j,1,0,24,24,8,1,1,bottom_left,neutral,threatening,0.4768,,,,,,,,,,,,,,,,,
,,,,,924766,m,y,r,n,14,0,2025-04-05_11h20.31.007,VisualSearchFaces,2024.2.4,MacIntel,121.9512195,,,,,,,,953.9205,954.0277,954.0278,956.0277,block2,j,1,0,25,25,9,1,1,bottom_right,neutral,threatening,0.3258,,,,,,,,,,,,,,,,,
,,,,,924766,m,y,r,n,14,0,2025-04-05_11h20.31.007,VisualSearchFaces,2024.2.4,MacIntel,121.9512195,,,,,,,,957.0288,957.1351,957.1351,959.136,block2,j,1,0,26,26,2,1,1,top_right,neutral,friendly,0.3595,,,,,,,,,,,,,,,,,
,,,,,924766,m,y,r,n,14,0,2025-04-05_11h20.31.007,VisualSearchFaces,2024.2.4,MacIntel,121.9512195,,,,,,,,960.137,960.2361,960.2361,962.236,block2,j,1,0,27,27,17,1,1,top_right,threatening,neutral,0.384,,,,,,,,,,,,,,,,,
,,,,,924766,m,y,r,n,14,0,2025-04-05_11h20.31.007,VisualSearchFaces,2024.2.4,MacIntel,121.9512195,,,,,,,,963.2371,963.3363,963.3363,965.3362,block2,f,0,0,28,28,0,1,1,centre,neutral,friendly,0.6672,,,,,,,,,,,,,,,,,
,,,,,924766,m,y,r,n,14,0,2025-04-05_11h20.31.007,VisualSearchFaces,2024.2.4,MacIntel,121.9512195,,,,,,,,966.3377,966.4446,966.4446,968.4443,block2,j,1,0,29,29,13,1,1,bottom_left,friendly,neutral,0.5492,,,,,,,,,,,,,,,,,
,,,,,924766,m,y,r,n,14,0,2025-04-05_11h20.31.007,VisualSearchFaces,2024.2.4,MacIntel,121.9512195,,,,,,,,969.4453,969.5445,969.5445,971.5446,block2,f,1,0,30,30,20,1,0,centre,neutral,no_target,0.5824,,,,,,,,,,,,,,,,,
,,,,,924766,m,y,r,n,14,0,2025-04-05_11h20.31.007,VisualSearchFaces,2024.2.4,MacIntel,121.9512195,,,,,,,,972.5462,972.6529,972.6529,974.6528,block2,f,1,0,31,31,28,1,0,bottom_left,neutral,no_target,0.5189,,,,,,,,,,,,,,,,,
,,,,,924766,m,y,r,n,14,0,2025-04-05_11h20.31.007,VisualSearchFaces,2024.2.4,MacIntel,121.9512195,,,,,,,,975.6538,975.7611,975.7611,977.761,block2,j,1,0,32,32,11,1,1,top_left,friendly,neutral,0.4671,,,,,,,,,,,,,,,,,
,,,,,924766,m,y,r,n,14,0,2025-04-05_11h20.31.007,VisualSearchFaces,2024.2.4,MacIntel,121.9512195,,,,,,,,978.7626,978.8694,978.8695,980.8692,block2,j,0,0,33,33,39,1,0,bottom_right,threatening,no_target,0.4599,,,,,,,,,,,,,,,,,
,,,,,924766,m,y,r,n,14,0,2025-04-05_11h20.31.007,VisualSearchFaces,2024.2.4,MacIntel,121.9512195,,,,,,,,981.8708,981.9776,981.9777,983.9777,block2,j,0,0,34,34,31,1,0,top_left,friendly,no_target,0.4177,,,,,,,,,,,,,,,,,
,,,,,924766,m,y,r,n,14,0,2025-04-05_11h20.31.007,VisualSearchFaces,2024.2.4,MacIntel,121.9512195,,,,,,,,984.979,985.078,985.078,987.0775,block2,f,1,0,35,35,34,1,0,bottom_right,friendly,no_target,0.7252,,,,,,,,,,,,,,,,,
,,,,,924766,m,y,r,n,14,0,2025-04-05_11h20.31.007,VisualSearchFaces,2024.2.4,MacIntel,121.9512195,,,,,,,,988.0788,988.1849,988.185,990.1863,block2,f,1,0,36,36,24,1,0,bottom_right,neutral,no_target,0.6754,,,,,,,,,,,,,,,,,
,,,,,924766,m,y,r,n,14,0,2025-04-05_11h20.31.007,VisualSearchFaces,2024.2.4,MacIntel,121.9512195,,,,,,,,991.1875,991.2942,991.2942,993.2942,block2,j,1,0,37,37,15,1,1,centre,threatening,neutral,0.3959,,,,,,,,,,,,,,,,,
,,,,,924766,m,y,r,n,14,0,2025-04-05_11h20.31.007,VisualSearchFaces,2024.2.4,MacIntel,121.9512195,,,,,,,,994.2954,994.4026,994.4026,996.4015,block2,j,0,0,38,38,36,1,0,top_left,threatening,no_target,0.434,,,,,,,,,,,,,,,,,
,,,,,924766,m,y,r,n,14,0,2025-04-05_11h20.31.007,VisualSearchFaces,2024.2.4,MacIntel,121.9512195,,,,,,,,997.4048,997.5113,997.5113,999.5102,block2,j,0,0,39,39,35,1,0,centre,threatening,no_target,0.3327,,,,,,,,,,,,,,,,,
,,,,,924766,m,y,r,n,14,0,2025-04-05_11h20.31.007,VisualSearchFaces,2024.2.4,MacIntel,121.9512195,,,,,,,,1000.5127,1000.6192,1000.6193,1002.6184,block2,f,1,1,0,40,26,1,0,top_left,neutral,no_target,0.5422,,,,,,,,,,,,,,,,,
,,,,,924766,m,y,r,n,14,0,2025-04-05_11h20.31.007,VisualSearchFaces,2024.2.4,MacIntel,121.9512195,,,,,,,,1003.6201,1003.7276,1003.7276,1005.7272,block2,j,0,1,1,41,34,1,0,bottom_right,friendly,no_target,0.438,,,,,,,,,,,,,,,,,
,,,,,924766,m,y,r,n,14,0,2025-04-05_11h20.31.007,VisualSearchFaces,2024.2.4,MacIntel,121.9512195,,,,,,,,1006.7295,1006.8359,1006.836,1008.8358,block2,j,0,1,2,42,36,1,0,top_left,threatening,no_target,0.383,,,,,,,,,,,,,,,,,
,,,,,924766,m,y,r,n,14,0,2025-04-05_11h20.31.007,VisualSearchFaces,2024.2.4,MacIntel,121.9512195,,,,,,,,1009.8377,1009.9444,1009.9445,1011.9441,block2,j,0,1,3,43,33,1,0,bottom_left,friendly,no_target,0.6499,,,,,,,,,,,,,,,,,
,,,,,924766,m,y,r,n,14,0,2025-04-05_11h20.31.007,VisualSearchFaces,2024.2.4,MacIntel,121.9512195,,,,,,,,1012.9457,1013.0441,1013.0442,1015.0444,block2,j,1,1,4,44,0,1,1,centre,neutral,friendly,0.4769,,,,,,,,,,,,,,,,,
,,,,,924766,m,y,r,n,14,0,2025-04-05_11h20.31.007,VisualSearchFaces,2024.2.4,MacIntel,121.9512195,,,,,,,,1016.0446,1016.1443,1016.1444,1018.1443,block2,f,1,1,5,45,30,1,0,centre,friendly,no_target,0.7765,,,,,,,,,,,,,,,,,
,,,,,924766,m,y,r,n,14,0,2025-04-05_11h20.31.007,VisualSearchFaces,2024.2.4,MacIntel,121.9512195,,,,,,,,1019.1455,1019.2522,1019.2522,1021.2522,block2,j,1,1,6,46,19,1,1,bottom_right,threatening,neutral,0.6506,,,,,,,,,,,,,,,,,
,,,,,924766,m,y,r,n,14,0,2025-04-05_11h20.31.007,VisualSearchFaces,2024.2.4,MacIntel,121.9512195,,,,,,,,1022.254,1022.3605,1022.3605,1024.3609,block2,j,1,1,7,47,5,1,1,centre,neutral,threatening,0.5438,,,,,,,,,,,,,,,,,
,,,,,924766,m,y,r,n,14,0,2025-04-05_11h20.31.007,VisualSearchFaces,2024.2.4,MacIntel,121.9512195,,,,,,,,1025.3635,1025.4693,1025.4693,1027.469,block2,j,1,1,8,48,7,1,1,top_right,neutral,threatening,0.4003,,,,,,,,,,,,,,,,,
,,,,,924766,m,y,r,n,14,0,2025-04-05_11h20.31.007,VisualSearchFaces,2024.2.4,MacIntel,121.9512195,,,,,,,,1028.4694,1028.5691,1028.5691,1030.5691,block2,j,1,1,9,49,6,1,1,top_left,neutral,threatening,0.4662,,,,,,,,,,,,,,,,,
,,,,,924766,m,y,r,n,14,0,2025-04-05_11h20.31.007,VisualSearchFaces,2024.2.4,MacIntel,121.9512195,,,,,,,,1031.5701,1031.6776,1031.6776,1033.6771,block2,j,1,1,10,50,1,1,1,top_left,neutral,friendly,0.4515,,,,,,,,,,,,,,,,,
,,,,,924766,m,y,r,n,14,0,2025-04-05_11h20.31.007,VisualSearchFaces,2024.2.4,MacIntel,121.9512195,,,,,,,,1034.6775,1034.7766,1034.7767,1036.7774,block2,j,0,1,11,51,39,1,0,bottom_right,threatening,no_target,0.3543,,,,,,,,,,,,,,,,,
,,,,,924766,m,y,r,n,14,0,2025-04-05_11h20.31.007,VisualSearchFaces,2024.2.4,MacIntel,121.9512195,,,,,,,,1037.7799,1037.8859,1037.8859,1039.8849,block2,f,1,1,12,52,27,1,0,top_right,neutral,no_target,0.6338,,,,,,,,,,,,,,,,,
,,,,,924766,m,y,r,n,14,0,2025-04-05_11h20.31.007,VisualSearchFaces,2024.2.4,MacIntel,121.9512195,,,,,,,,1040.8871,1040.994,1040.994,1042.9939,block2,j,1,1,13,53,8,1,1,bottom_left,neutral,threatening,0.5351,,,,,,,,,,,,,,,,,
,,,,,924766,m,y,r,n,14,0,2025-04-05_11h20.31.007,VisualSearchFaces,2024.2.4,MacIntel,121.9512195,,,,,,,,1043.9952,1044.1015,1044.1015,1046.1017,block2,j,1,1,14,54,10,1,1,centre,friendly,neutral,0.634,,,,,,,,,,,,,,,,,
,,,,,924766,m,y,r,n,14,0,2025-04-05_11h20.31.007,VisualSearchFaces,2024.2.4,MacIntel,121.9512195,,,,,,,,1047.1036,1047.2097,1047.2098,1049.2108,block2,j,1,1,15,55,4,1,1,bottom_right,neutral,friendly,0.4764,,,,,,,,,,,,,,,,,
,,,,,924766,m,y,r,n,14,0,2025-04-05_11h20.31.007,VisualSearchFaces,2024.2.4,MacIntel,121.9512195,,,,,,,,1050.2118,1050.3192,1050.3192,1052.3187,block2,j,1,1,16,56,9,1,1,bottom_right,neutral,threatening,0.3318,,,,,,,,,,,,,,,,,
,,,,,924766,m,y,r,n,14,0,2025-04-05_11h20.31.007,VisualSearchFaces,2024.2.4,MacIntel,121.9512195,,,,,,,,1053.32,1053.4275,1053.4276,1055.4273,block2,j,1,1,17,57,18,1,1,bottom_left,threatening,neutral,0.3596,,,,,,,,,,,,,,,,,
,,,,,924766,m,y,r,n,14,0,2025-04-05_11h20.31.007,VisualSearchFaces,2024.2.4,MacIntel,121.9512195,,,,,,,,1056.4276,1056.5275,1056.5276,1058.5275,block2,j,1,1,18,58,16,1,1,top_left,threatening,neutral,0.3574,,,,,,,,,,,,,,,,,
,,,,,924766,m,y,r,n,14,0,2025-04-05_11h20.31.007,VisualSearchFaces,2024.2.4,MacIntel,121.9512195,,,,,,,,1059.5286,1059.6359,1059.636,1061.6353,block2,j,1,1,19,59,17,1,1,top_right,threatening,neutral,0.2861,,,,,,,,,,,,,,,,,
,,,,,924766,m,y,r,n,14,0,2025-04-05_11h20.31.007,VisualSearchFaces,2024.2.4,MacIntel,121.9512195,,,,,,,,1062.6365,1062.7442,1062.7442,1064.7438,block2,j,0,1,20,60,20,1,0,centre,neutral,no_target,0.3823,,,,,,,,,,,,,,,,,
,,,,,924766,m,y,r,n,14,0,2025-04-05_11h20.31.007,VisualSearchFaces,2024.2.4,MacIntel,121.9512195,,,,,,,,1065.7449,1065.8439,1065.8441,1067.8438,block2,j,0,1,21,61,32,1,0,top_right,friendly,no_target,0.559,,,,,,,,,,,,,,,,,
,,,,,924766,m,y,r,n,14,0,2025-04-05_11h20.31.007,VisualSearchFaces,2024.2.4,MacIntel,121.9512195,,,,,,,,1068.8456,1068.9524,1068.9524,1070.9522,block2,f,1,1,22,62,24,1,0,bottom_right,neutral,no_target,0.4758,,,,,,,,,,,,,,,,,
,,,,,924766,m,y,r,n,14,0,2025-04-05_11h20.31.007,VisualSearchFaces,2024.2.4,MacIntel,121.9512195,,,,,,,,1071.9538,1072.0607,1072.0607,1074.0607,block2,f,1,1,23,63,28,1,0,bottom_left,neutral,no_target,0.5343,,,,,,,,,,,,,,,,,
,,,,,924766,m,y,r,n,14,0,2025-04-05_11h20.31.007,VisualSearchFaces,2024.2.4,MacIntel,121.9512195,,,,,,,,1075.0617,1075.1691,1075.1692,1077.1688,block2,j,1,1,24,64,11,1,1,top_left,friendly,neutral,0.492,,,,,,,,,,,,,,,,,
,,,,,924766,m,y,r,n,14,0,2025-04-05_11h20.31.007,VisualSearchFaces,2024.2.4,MacIntel,121.9512195,,,,,,,,1078.17,1078.2689,1078.2689,1080.2689,block2,f,1,1,25,65,22,1,0,top_right,neutral,no_target,0.5334,,,,,,,,,,,,,,,,,
,,,,,924766,m,y,r,n,14,0,2025-04-05_11h20.31.007,VisualSearchFaces,2024.2.4,MacIntel,121.9512195,,,,,,,,1081.2701,1081.3689,1081.3689,1083.3688,block2,j,0,1,26,66,37,1,0,top_right,threatening,no_target,0.5057,,,,,,,,,,,,,,,,,
,,,,,924766,m,y,r,n,14,0,2025-04-05_11h20.31.007,VisualSearchFaces,2024.2.4,MacIntel,121.9512195,,,,,,,,1084.3703,1084.4762,1084.4763,1086.4772,block2,f,1,1,27,67,21,1,0,top_left,neutral,no_target,0.4936,,,,,,,,,,,,,,,,,
,,,,,924766,m,y,r,n,14,0,2025-04-05_11h20.31.007,VisualSearchFaces,2024.2.4,MacIntel,121.9512195,,,,,,,,1087.4783,1087.5854,1087.5854,1089.5846,block2,f,1,1,28,68,38,1,0,bottom_left,threatening,no_target,0.8692,,,,,,,,,,,,,,,,,
,,,,,924766,m,y,r,n,14,0,2025-04-05_11h20.31.007,VisualSearchFaces,2024.2.4,MacIntel,121.9512195,,,,,,,,1090.5867,1090.6931,1090.6932,1092.6928,block2,f,1,1,29,69,25,1,0,centre,neutral,no_target,0.5098,,,,,,,,,,,,,,,,,
,,,,,924766,m,y,r,n,14,0,2025-04-05_11h20.31.007,VisualSearchFaces,2024.2.4,MacIntel,121.9512195,,,,,,,,1093.6951,1093.8012,1093.8013,1095.8021,block2,f,1,1,30,70,23,1,0,bottom_left,neutral,no_target,0.3749,,,,,,,,,,,,,,,,,
,,,,,924766,m,y,r,n,14,0,2025-04-05_11h20.31.007,VisualSearchFaces,2024.2.4,MacIntel,121.9512195,,,,,,,,1096.8033,1096.9106,1096.9107,1098.9103,block2,j,1,1,31,71,15,1,1,centre,threatening,neutral,1.6252,,,,,,,,,,,,,,,,,
,,,,,924766,m,y,r,n,14,0,2025-04-05_11h20.31.007,VisualSearchFaces,2024.2.4,MacIntel,121.9512195,,,,,,,,1099.9128,1100.0188,1100.0189,1102.0186,block2,j,1,1,32,72,14,1,1,bottom_right,friendly,neutral,0.4958,,,,,,,,,,,,,,,,,
,,,,,924766,m,y,r,n,14,0,2025-04-05_11h20.31.007,VisualSearchFaces,2024.2.4,MacIntel,121.9512195,,,,,,,,1103.0196,1103.1186,1103.1188,1105.1179,block2,j,1,1,33,73,13,1,1,bottom_left,friendly,neutral,0.4601,,,,,,,,,,,,,,,,,
,,,,,924766,m,y,r,n,14,0,2025-04-05_11h20.31.007,VisualSearchFaces,2024.2.4,MacIntel,121.9512195,,,,,,,,1106.1201,1106.2272,1106.2272,1108.2268,block2,j,0,1,34,74,35,1,0,centre,threatening,no_target,0.342,,,,,,,,,,,,,,,,,
,,,,,924766,m,y,r,n,14,0,2025-04-05_11h20.31.007,VisualSearchFaces,2024.2.4,MacIntel,121.9512195,,,,,,,,1109.2291,1109.3354,1109.3355,1111.3355,block2,j,1,1,35,75,12,1,1,top_right,friendly,neutral,0.5014,,,,,,,,,,,,,,,,,
,,,,,924766,m,y,r,n,14,0,2025-04-05_11h20.31.007,VisualSearchFaces,2024.2.4,MacIntel,121.9512195,,,,,,,,1112.3356,1112.4434,1112.4434,1114.4427,block2,f,1,1,36,76,29,1,0,bottom_right,neutral,no_target,0.5345,,,,,,,,,,,,,,,,,
,,,,,924766,m,y,r,n,14,0,2025-04-05_11h20.31.007,VisualSearchFaces,2024.2.4,MacIntel,121.9512195,,,,,,,,1115.4452,1115.5521,1115.5521,1117.5511,block2,j,1,1,37,77,3,1,1,bottom_left,neutral,friendly,0.4744,,,,,,,,,,,,,,,,,
,,,,,924766,m,y,r,n,14,0,2025-04-05_11h20.31.007,VisualSearchFaces,2024.2.4,MacIntel,121.9512195,,,,,,,,1118.5532,1118.6603,1118.6603,1120.6605,block2,j,1,1,38,78,2,1,1,top_right,neutral,friendly,0.3496,,,,,,,,,,,,,,,,,
,,,,,924766,m,y,r,n,14,0,2025-04-05_11h20.31.007,VisualSearchFaces,2024.2.4,MacIntel,121.9512195,,,,,,,,1121.6618,1121.7606,1121.7607,1123.7602,block2,j,0,1,39,79,31,1,0,top_left,friendly,no_target,0.4112,,,,,,,,,,,,,,,,,
,,,,,924766,m,y,r,n,14,0,2025-04-05_11h20.31.007,VisualSearchFaces,2024.2.4,MacIntel,121.9512195,,,1245.7459,1246.9932,space,1.2359,,1247.9942,1248.1006,1248.1006,1250.1015,block3,j,1,0,0,0,16,1,1,top_left,threatening,neutral,0.5346,,1123.7616,1245.7433,space,121.9708,,,,,,,,,,,,
,,,,,924766,m,y,r,n,14,0,2025-04-05_11h20.31.007,VisualSearchFaces,2024.2.4,MacIntel,121.9512195,,,,,,,,1251.1025,1251.2097,1251.2097,1253.2095,block3,j,1,0,1,1,11,1,1,top_left,friendly,neutral,0.5046,,,,,,,,,,,,,,,,,
,,,,,924766,m,y,r,n,14,0,2025-04-05_11h20.31.007,VisualSearchFaces,2024.2.4,MacIntel,121.9512195,,,,,,,,1254.2109,1254.318,1254.318,1256.3181,block3,j,1,0,2,2,5,1,1,centre,neutral,threatening,0.4434,,,,,,,,,,,,,,,,,
,,,,,924766,m,y,r,n,14,0,2025-04-05_11h20.31.007,VisualSearchFaces,2024.2.4,MacIntel,121.9512195,,,,,,,,1257.3191,1257.4265,1257.4265,1259.4262,block3,j,1,0,3,3,1,1,1,top_left,neutral,friendly,0.4511,,,,,,,,,,,,,,,,,
,,,,,924766,m,y,r,n,14,0,2025-04-05_11h20.31.007,VisualSearchFaces,2024.2.4,MacIntel,121.9512195,,,,,,,,1260.4279,1260.5342,1260.5342,1262.5346,block3,j,0,0,4,4,32,1,0,top_right,friendly,no_target,0.8954,,,,,,,,,,,,,,,,,
,,,,,924766,m,y,r,n,14,0,2025-04-05_11h20.31.007,VisualSearchFaces,2024.2.4,MacIntel,121.9512195,,,,,,,,1263.5359,1263.6431,1263.6432,1265.6426,block3,f,0,0,5,5,13,1,1,bottom_left,friendly,neutral,0.7082,,,,,,,,,,,,,,,,,
,,,,,924766,m,y,r,n,14,0,2025-04-05_11h20.31.007,VisualSearchFaces,2024.2.4,MacIntel,121.9512195,,,,,,,,1266.6443,1266.7513,1266.7513,1268.7514,block3,f,1,0,6,6,31,1,0,top_left,friendly,no_target,0.7421,,,,,,,,,,,,,,,,,
,,,,,924766,m,y,r,n,14,0,2025-04-05_11h20.31.007,VisualSearchFaces,2024.2.4,MacIntel,121.9512195,,,,,,,,1269.7531,1269.8596,1269.8597,1271.8595,block3,f,1,0,7,7,28,1,0,bottom_left,neutral,no_target,0.7422,,,,,,,,,,,,,,,,,
,,,,,924766,m,y,r,n,14,0,2025-04-05_11h20.31.007,VisualSearchFaces,2024.2.4,MacIntel,121.9512195,,,,,,,,1272.8607,1272.967,1272.9671,1274.9678,block3,f,1,0,8,8,34,1,0,bottom_right,friendly,no_target,0.785,,,,,,,,,,,,,,,,,
,,,,,924766,m,y,r,n,14,0,2025-04-05_11h20.31.007,VisualSearchFaces,2024.2.4,MacIntel,121.9512195,,,,,,,,1275.9693,1276.0762,1276.0762,1278.0762,block3,f,1,0,9,9,21,1,0,top_left,neutral,no_target,0.734,,,,,,,,,,,,,,,,,
,,,,,924766,m,y,r,n,14,0,2025-04-05_11h20.31.007,VisualSearchFaces,2024.2.4,MacIntel,121.9512195,,,,,,,,1279.0787,1279.1837,1279.1838,1281.1846,block3,j,1,0,10,10,19,1,1,bottom_right,threatening,neutral,0.551,,,,,,,,,,,,,,,,,
,,,,,924766,m,y,r,n,14,0,2025-04-05_11h20.31.007,VisualSearchFaces,2024.2.4,MacIntel,121.9512195,,,,,,,,1282.186,1282.292,1282.2922,1284.2919,block3,j,1,0,11,11,18,1,1,bottom_left,threatening,neutral,0.3837,,,,,,,,,,,,,,,,,
,,,,,924766,m,y,r,n,14,0,2025-04-05_11h20.31.007,VisualSearchFaces,2024.2.4,MacIntel,121.9512195,,,,,,,,1285.294,1285.4012,1285.4013,1287.4004,block3,j,1,0,12,12,4,1,1,bottom_right,neutral,friendly,0.4539,,,,,,,,,,,,,,,,,
,,,,,924766,m,y,r,n,14,0,2025-04-05_11h20.31.007,VisualSearchFaces,2024.2.4,MacIntel,121.9512195,,,,,,,,1288.4025,1288.5013,1288.5013,1290.501,block3,j,1,0,13,13,6,1,1,top_left,neutral,threatening,0.3834,,,,,,,,,,,,,,,,,
,,,,,924766,m,y,r,n,14,0,2025-04-05_11h20.31.007,VisualSearchFaces,2024.2.4,MacIntel,121.9512195,,,,,,,,1291.5031,1291.6087,1291.6088,1293.6095,block3,j,1,0,14,14,17,1,1,top_right,threatening,neutral,0.3605,,,,,,,,,,,,,,,,,
,,,,,924766,m,y,r,n,14,0,2025-04-05_11h20.31.007,VisualSearchFaces,2024.2.4,MacIntel,121.9512195,,,,,,,,1294.6106,1294.7178,1294.7179,1296.7179,block3,f,1,0,15,15,25,1,0,centre,neutral,no_target,0.7003,,,,,,,,,,,,,,,,,
,,,,,924766,m,y,r,n,14,0,2025-04-05_11h20.31.007,VisualSearchFaces,2024.2.4,MacIntel,121.9512195,,,,,,,,1297.7184,1297.8261,1297.8262,1299.8253,block3,f,1,0,16,16,20,1,0,centre,neutral,no_target,0.4685,,,,,,,,,,,,,,,,,
,,,,,924766,m,y,r,n,14,0,2025-04-05_11h20.31.007,VisualSearchFaces,2024.2.4,MacIntel,121.9512195,,,,,,,,1300.8273,1300.9344,1300.9345,1302.9345,block3,j,0,0,17,17,39,1,0,bottom_right,threatening,no_target,0.393,,,,,,,,,,,,,,,,,
,,,,,924766,m,y,r,n,14,0,2025-04-05_11h20.31.007,VisualSearchFaces,2024.2.4,MacIntel,121.9512195,,,,,,,,1303.9354,1304.0427,1304.0428,1306.0426,block3,f,1,0,18,18,24,1,0,bottom_right,neutral,no_target,0.6765,,,,,,,,,,,,,,,,,
,,,,,924766,m,y,r,n,14,0,2025-04-05_11h20.31.007,VisualSearchFaces,2024.2.4,MacIntel,121.9512195,,,,,,,,1307.0438,1307.1504,1307.1504,1309.1512,block3,j,1,0,19,19,0,1,1,centre,neutral,friendly,0.4178,,,,,,,,,,,,,,,,,
,,,,,924766,m,y,r,n,14,0,2025-04-05_11h20.31.007,VisualSearchFaces,2024.2.4,MacIntel,121.9512195,,,,,,,,1310.1522,1310.2593,1310.2593,1312.2594,block3,j,1,0,20,20,9,1,1,bottom_right,neutral,threatening,0.3085,,,,,,,,,,,,,,,,,
,,,,,924766,m,y,r,n,14,0,2025-04-05_11h20.31.007,VisualSearchFaces,2024.2.4,MacIntel,121.9512195,,,,,,,,1313.2607,1313.3595,1313.3596,1315.3592,block3,j,1,0,21,21,3,1,1,bottom_left,neutral,friendly,0.4764,,,,,,,,,,,,,,,,,
,,,,,924766,m,y,r,n,14,0,2025-04-05_11h20.31.007,VisualSearchFaces,2024.2.4,MacIntel,121.9512195,,,,,,,,1316.3595,1316.4592,1316.4592,1318.4582,block3,f,0,0,22,22,10,1,1,centre,friendly,neutral,1.0179,,,,,,,,,,,,,,,,,
,,,,,924766,m,y,r,n,14,0,2025-04-05_11h20.31.007,VisualSearchFaces,2024.2.4,MacIntel,121.9512195,,,,,,,,1319.4599,1319.5593,1319.5594,1321.5594,block3,f,1,0,23,23,29,1,0,bottom_right,neutral,no_target,0.6671,,,,,,,,,,,,,,,,,
,,,,,924766,m,y,r,n,14,0,2025-04-05_11h20.31.007,VisualSearchFaces,2024.2.4,MacIntel,121.9512195,,,,,,,,1322.5607,1322.6677,1322.6678,1324.6677,block3,f,1,0,24,24,36,1,0,top_left,threatening,no_target,0.7965,,,,,,,,,,,,,,,,,
,,,,,924766,m,y,r,n,14,0,2025-04-05_11h20.31.007,VisualSearchFaces,2024.2.4,MacIntel,121.9512195,,,,,,,,1325.669,1325.7761,1325.7762,1327.7752,block3,j,1,0,25,25,2,1,1,top_right,neutral,friendly,0.4753,,,,,,,,,,,,,,,,,
,,,,,924766,m,y,r,n,14,0,2025-04-05_11h20.31.007,VisualSearchFaces,2024.2.4,MacIntel,121.9512195,,,,,,,,1328.777,1328.8759,1328.8759,1330.876,block3,j,1,0,26,26,15,1,1,centre,threatening,neutral,0.5081,,,,,,,,,,,,,,,,,
,,,,,924766,m,y,r,n,14,0,2025-04-05_11h20.31.007,VisualSearchFaces,2024.2.4,MacIntel,121.9512195,,,,,,,,1331.8764,1331.976,1331.976,1333.9751,block3,j,1,0,27,27,8,1,1,bottom_left,neutral,threatening,0.4493,,,,,,,,,,,,,,,,,
,,,,,924766,m,y,r,n,14,0,2025-04-05_11h20.31.007,VisualSearchFaces,2024.2.4,MacIntel,121.9512195,,,,,,,,1334.9772,1335.0833,1335.0835,1337.0842,block3,f,1,0,28,28,37,1,0,top_right,threatening,no_target,0.6839,,,,,,,,,,,,,,,,,
,,,,,924766,m,y,r,n,14,0,2025-04-05_11h20.31.007,VisualSearchFaces,2024.2.4,MacIntel,121.9512195,,,,,,,,1338.0857,1338.1919,1338.192,1340.1925,block3,f,1,0,29,29,27,1,0,top_right,neutral,no_target,0.6099,,,,,,,,,,,,,,,,,
,,,,,924766,m,y,r,n,14,0,2025-04-05_11h20.31.007,VisualSearchFaces,2024.2.4,MacIntel,121.9512195,,,,,,,,1341.1938,1341.3008,1341.3009,1343.3005,block3,f,1,0,30,30,26,1,0,top_left,neutral,no_target,0.4535,,,,,,,,,,,,,,,,,
,,,,,924766,m,y,r,n,14,0,2025-04-05_11h20.31.007,VisualSearchFaces,2024.2.4,MacIntel,121.9512195,,,,,,,,1344.3021,1344.4093,1344.4093,1346.4092,block3,j,1,0,31,31,14,1,1,bottom_right,friendly,neutral,0.484,,,,,,,,,,,,,,,,,
,,,,,924766,m,y,r,n,14,0,2025-04-05_11h20.31.007,VisualSearchFaces,2024.2.4,MacIntel,121.9512195,,,,,,,,1347.4108,1347.5174,1347.5174,1349.5176,block3,j,1,0,32,32,12,1,1,top_right,friendly,neutral,0.4674,,,,,,,,,,,,,,,,,
,,,,,924766,m,y,r,n,14,0,2025-04-05_11h20.31.007,VisualSearchFaces,2024.2.4,MacIntel,121.9512195,,,,,,,,1350.5181,1350.6259,1350.6259,1352.6259,block3,f,1,0,33,33,35,1,0,centre,threatening,no_target,0.6417,,,,,,,,,,,,,,,,,
,,,,,924766,m,y,r,n,14,0,2025-04-05_11h20.31.007,VisualSearchFaces,2024.2.4,MacIntel,121.9512195,,,,,,,,1353.6269,1353.7331,1353.7332,1355.7343,block3,j,0,0,34,34,33,1,0,bottom_left,friendly,no_target,1.0596,,,,,,,,,,,,,,,,,
,,,,,924766,m,y,r,n,14,0,2025-04-05_11h20.31.007,VisualSearchFaces,2024.2.4,MacIntel,121.9512195,,,,,,,,1356.7367,1356.8415,1356.8416,1358.8425,block3,j,0,0,35,35,22,1,0,top_right,neutral,no_target,0.6679,,,,,,,,,,,,,,,,,
,,,,,924766,m,y,r,n,14,0,2025-04-05_11h20.31.007,VisualSearchFaces,2024.2.4,MacIntel,121.9512195,,,,,,,,1359.8427,1359.9424,1359.9424,1361.9425,block3,j,0,0,36,36,30,1,0,centre,friendly,no_target,0.9828,,,,,,,,,,,,,,,,,
,,,,,924766,m,y,r,n,14,0,2025-04-05_11h20.31.007,VisualSearchFaces,2024.2.4,MacIntel,121.9512195,,,,,,,,1362.9431,1363.0424,1363.0425,1365.0425,block3,f,1,0,37,37,23,1,0,bottom_left,neutral,no_target,0.6499,,,,,,,,,,,,,,,,,
,,,,,924766,m,y,r,n,14,0,2025-04-05_11h20.31.007,VisualSearchFaces,2024.2.4,MacIntel,121.9512195,,,,,,,,1366.044,1366.1508,1366.1509,1368.1507,block3,f,1,0,38,38,38,1,0,bottom_left,threatening,no_target,0.7847,,,,,,,,,,,,,,,,,
,,,,,924766,m,y,r,n,14,0,2025-04-05_11h20.31.007,VisualSearchFaces,2024.2.4,MacIntel,121.9512195,,,,,,,,1369.1512,1369.2507,1369.2508,1371.2506,block3,j,1,0,39,39,7,1,1,top_right,neutral,threatening,0.4584,,,,,,,,,,,,,,,,,
,,,,,924766,m,y,r,n,14,0,2025-04-05_11h20.31.007,VisualSearchFaces,2024.2.4,MacIntel,121.9512195,,,,,,,,1372.2521,1372.359,1372.3591,1374.3591,block3,j,1,1,0,40,14,1,1,bottom_right,friendly,neutral,0.4665,,,,,,,,,,,,,,,,,
,,,,,924766,m,y,r,n,14,0,2025-04-05_11h20.31.007,VisualSearchFaces,2024.2.4,MacIntel,121.9512195,,,,,,,,1375.36,1375.4674,1375.4674,1377.4666,block3,f,1,1,1,41,24,1,0,bottom_right,neutral,no_target,0.593,,,,,,,,,,,,,,,,,
,,,,,924766,m,y,r,n,14,0,2025-04-05_11h20.31.007,VisualSearchFaces,2024.2.4,MacIntel,121.9512195,,,,,,,,1378.4699,1378.5756,1378.5757,1380.5757,block3,f,1,1,2,42,23,1,0,bottom_left,neutral,no_target,0.6833,,,,,,,,,,,,,,,,,
,,,,,924766,m,y,r,n,14,0,2025-04-05_11h20.31.007,VisualSearchFaces,2024.2.4,MacIntel,121.9512195,,,,,,,,1381.5768,1381.6841,1381.6842,1383.6833,block3,j,1,1,3,43,10,1,1,centre,friendly,neutral,0.9502,,,,,,,,,,,,,,,,,
,,,,,924766,m,y,r,n,14,0,2025-04-05_11h20.31.007,VisualSearchFaces,2024.2.4,MacIntel,121.9512195,,,,,,,,1384.6856,1384.7923,1384.7923,1386.7922,block3,j,0,1,4,44,28,1,0,bottom_left,neutral,no_target,0.3838,,,,,,,,,,,,,,,,,
,,,,,924766,m,y,r,n,14,0,2025-04-05_11h20.31.007,VisualSearchFaces,2024.2.4,MacIntel,121.9512195,,,,,,,,1387.7923,1387.8923,1387.8924,1389.8922,block3,j,1,1,5,45,9,1,1,bottom_right,neutral,threatening,0.4591,,,,,,,,,,,,,,,,,
,,,,,924766,m,y,r,n,14,0,2025-04-05_11h20.31.007,VisualSearchFaces,2024.2.4,MacIntel,121.9512195,,,,,,,,1390.8937,1391.0007,1391.0007,1392.9998,block3,f,1,1,6,46,31,1,0,top_left,friendly,no_target,0.6921,,,,,,,,,,,,,,,,,
,,,,,924766,m,y,r,n,14,0,2025-04-05_11h20.31.007,VisualSearchFaces,2024.2.4,MacIntel,121.9512195,,,,,,,,1394.002,1394.1089,1394.1089,1396.1089,block3,j,1,1,7,47,1,1,1,top_left,neutral,friendly,0.5921,,,,,,,,,,,,,,,,,
,,,,,924766,m,y,r,n,14,0,2025-04-05_11h20.31.007,VisualSearchFaces,2024.2.4,MacIntel,121.9512195,,,,,,,,1397.1107,1397.2172,1397.2173,1399.2174,block3,j,1,1,8,48,6,1,1,top_left,neutral,threatening,0.3927,,,,,,,,,,,,,,,,,
,,,,,924766,m,y,r,n,14,0,2025-04-05_11h20.31.007,VisualSearchFaces,2024.2.4,MacIntel,121.9512195,,,,,,,,1400.2183,1400.3174,1400.3175,1402.3163,block3,j,0,1,9,49,39,1,0,bottom_right,threatening,no_target,0.9251,,,,,,,,,,,,,,,,,
,,,,,924766,m,y,r,n,14,0,2025-04-05_11h20.31.007,VisualSearchFaces,2024.2.4,MacIntel,121.9512195,,,,,,,,1403.3185,1403.4255,1403.4256,1405.4253,block3,j,1,1,10,50,3,1,1,bottom_left,neutral,friendly,0.5342,,,,,,,,,,,,,,,,,
,,,,,924766,m,y,r,n,14,0,2025-04-05_11h20.31.007,VisualSearchFaces,2024.2.4,MacIntel,121.9512195,,,,,,,,1406.4267,1406.5331,1406.5332,1408.5334,block3,f,1,1,11,51,33,1,0,bottom_left,friendly,no_target,0.734,,,,,,,,,,,,,,,,,
,,,,,924766,m,y,r,n,14,0,2025-04-05_11h20.31.007,VisualSearchFaces,2024.2.4,MacIntel,121.9512195,,,,,,,,1409.5351,1409.6414,1409.6414,1411.6424,block3,f,1,1,12,52,34,1,0,bottom_right,friendly,no_target,0.5017,,,,,,,,,,,,,,,,,
,,,,,924766,m,y,r,n,14,0,2025-04-05_11h20.31.007,VisualSearchFaces,2024.2.4,MacIntel,121.9512195,,,,,,,,1412.6436,1412.7496,1412.7496,1414.7506,block3,j,1,1,13,53,5,1,1,centre,neutral,threatening,0.477,,,,,,,,,,,,,,,,,
,,,,,924766,m,y,r,n,14,0,2025-04-05_11h20.31.007,VisualSearchFaces,2024.2.4,MacIntel,121.9512195,,,,,,,,1415.752,1415.859,1415.859,1417.8588,block3,f,1,1,14,54,25,1,0,centre,neutral,no_target,0.6023,,,,,,,,,,,,,,,,,
,,,,,924766,m,y,r,n,14,0,2025-04-05_11h20.31.007,VisualSearchFaces,2024.2.4,MacIntel,121.9512195,,,,,,,,1418.8603,1418.9671,1418.9672,1420.9671,block3,j,0,1,15,55,37,1,0,top_right,threatening,no_target,0.6182,,,,,,,,,,,,,,,,,
,,,,,924766,m,y,r,n,14,0,2025-04-05_11h20.31.007,VisualSearchFaces,2024.2.4,MacIntel,121.9512195,,,,,,,,1421.9686,1422.0756,1422.0756,1424.0745,block3,j,1,1,16,56,19,1,1,bottom_right,threatening,neutral,0.4516,,,,,,,,,,,,,,,,,
,,,,,924766,m,y,r,n,14,0,2025-04-05_11h20.31.007,VisualSearchFaces,2024.2.4,MacIntel,121.9512195,,,,,,,,1425.0779,1425.1827,1425.1828,1427.1839,block3,j,1,1,17,57,15,1,1,centre,threatening,neutral,1.2429,,,,,,,,,,,,,,,,,
,,,,,924766,m,y,r,n,14,0,2025-04-05_11h20.31.007,VisualSearchFaces,2024.2.4,MacIntel,121.9512195,,,,,,,,1428.1852,1428.2922,1428.2922,1430.2922,block3,j,1,1,18,58,2,1,1,top_right,neutral,friendly,0.4424,,,,,,,,,,,,,,,,,
,,,,,924766,m,y,r,n,14,0,2025-04-05_11h20.31.007,VisualSearchFaces,2024.2.4,MacIntel,121.9512195,,,,,,,,1431.2933,1431.3998,1431.3999,1433.4004,block3,j,1,1,19,59,11,1,1,top_left,friendly,neutral,0.51,,,,,,,,,,,,,,,,,
,,,,,924766,m,y,r,n,14,0,2025-04-05_11h20.31.007,VisualSearchFaces,2024.2.4,MacIntel,121.9512195,,,,,,,,1434.4017,1434.5088,1434.5089,1436.5087,block3,j,1,1,20,60,18,1,1,bottom_left,threatening,neutral,0.427,,,,,,,,,,,,,,,,,
,,,,,924766,m,y,r,n,14,0,2025-04-05_11h20.31.007,VisualSearchFaces,2024.2.4,MacIntel,121.9512195,,,,,,,,1437.5112,1437.6163,1437.6163,1439.617,block3,j,1,1,21,61,8,1,1,bottom_left,neutral,threatening,0.3586,,,,,,,,,,,,,,,,,
,,,,,924766,m,y,r,n,14,0,2025-04-05_11h20.31.007,VisualSearchFaces,2024.2.4,MacIntel,121.9512195,,,,,,,,1440.6183,1440.7254,1440.7255,1442.7255,block3,j,1,1,22,62,16,1,1,top_left,threatening,neutral,0.4718,,,,,,,,,,,,,,,,,
,,,,,924766,m,y,r,n,14,0,2025-04-05_11h20.31.007,VisualSearchFaces,2024.2.4,MacIntel,121.9512195,,,,,,,,1443.7264,1443.8328,1443.833,1445.8334,block3,f,1,1,23,63,20,1,0,centre,neutral,no_target,0.5836,,,,,,,,,,,,,,,,,
,,,,,924766,m,y,r,n,14,0,2025-04-05_11h20.31.007,VisualSearchFaces,2024.2.4,MacIntel,121.9512195,,,,,,,,1446.8351,1446.9421,1446.9422,1448.9423,block3,f,1,1,24,64,21,1,0,top_left,neutral,no_target,0.5339,,,,,,,,,,,,,,,,,
,,,,,924766,m,y,r,n,14,0,2025-04-05_11h20.31.007,VisualSearchFaces,2024.2.4,MacIntel,121.9512195,,,,,,,,1449.9432,1450.0423,1450.0423,1452.0418,block3,f,1,1,25,65,29,1,0,bottom_right,neutral,no_target,0.4321,,,,,,,,,,,,,,,,,
,,,,,924766,m,y,r,n,14,0,2025-04-05_11h20.31.007,VisualSearchFaces,2024.2.4,MacIntel,121.9512195,,,,,,,,1453.043,1453.1506,1453.1506,1455.1503,block3,j,0,1,26,66,36,1,0,top_left,threatening,no_target,0.9369,,,,,,,,,,,,,,,,,
,,,,,924766,m,y,r,n,14,0,2025-04-05_11h20.31.007,VisualSearchFaces,2024.2.4,MacIntel,121.9512195,,,,,,,,1456.1514,1456.2585,1456.2587,1458.2587,block3,j,1,1,27,67,7,1,1,top_right,neutral,threatening,0.4587,,,,,,,,,,,,,,,,,
,,,,,924766,m,y,r,n,14,0,2025-04-05_11h20.31.007,VisualSearchFaces,2024.2.4,MacIntel,121.9512195,,,,,,,,1459.2607,1459.367,1459.3671,1461.3669,block3,j,0,1,28,68,32,1,0,top_right,friendly,no_target,1.3098,,,,,,,,,,,,,,,,,
,,,,,924766,m,y,r,n,14,0,2025-04-05_11h20.31.007,VisualSearchFaces,2024.2.4,MacIntel,121.9512195,,,,,,,,1462.3682,1462.4752,1462.4753,1464.4756,block3,j,1,1,29,69,4,1,1,bottom_right,neutral,friendly,0.8183,,,,,,,,,,,,,,,,,
,,,,,924766,m,y,r,n,14,0,2025-04-05_11h20.31.007,VisualSearchFaces,2024.2.4,MacIntel,121.9512195,,,,,,,,1465.4765,1465.5837,1465.5839,1467.5826,block3,f,1,1,30,70,22,1,0,top_right,neutral,no_target,0.5407,,,,,,,,,,,,,,,,,
,,,,,924766,m,y,r,n,14,0,2025-04-05_11h20.31.007,VisualSearchFaces,2024.2.4,MacIntel,121.9512195,,,,,,,,1468.5854,1468.6919,1468.6919,1470.6919,block3,f,1,1,31,71,26,1,0,top_left,neutral,no_target,0.4847,,,,,,,,,,,,,,,,,
,,,,,924766,m,y,r,n,14,0,2025-04-05_11h20.31.007,VisualSearchFaces,2024.2.4,MacIntel,121.9512195,,,,,,,,1471.6933,1471.7991,1471.7992,1473.8003,block3,j,0,1,32,72,35,1,0,centre,threatening,no_target,0.6424,,,,,,,,,,,,,,,,,
,,,,,924766,m,y,r,n,14,0,2025-04-05_11h20.31.007,VisualSearchFaces,2024.2.4,MacIntel,121.9512195,,,,,,,,1474.8012,1474.9003,1474.9003,1476.9002,block3,j,1,1,33,73,17,1,1,top_right,threatening,neutral,0.5605,,,,,,,,,,,,,,,,,
,,,,,924766,m,y,r,n,14,0,2025-04-05_11h20.31.007,VisualSearchFaces,2024.2.4,MacIntel,121.9512195,,,,,,,,1477.9017,1478.0003,1478.0003,1480.0003,block3,j,1,1,34,74,12,1,1,top_right,friendly,neutral,0.95,,,,,,,,,,,,,,,,,
,,,,,924766,m,y,r,n,14,0,2025-04-05_11h20.31.007,VisualSearchFaces,2024.2.4,MacIntel,121.9512195,,,,,,,,1481.0014,1481.1085,1481.1086,1483.1085,block3,j,1,1,35,75,0,1,1,centre,neutral,friendly,0.5173,,,,,,,,,,,,,,,,,
,,,,,924766,m,y,r,n,14,0,2025-04-05_11h20.31.007,VisualSearchFaces,2024.2.4,MacIntel,121.9512195,,,,,,,,1484.1098,1484.2159,1484.2159,1486.217,block3,f,1,1,36,76,30,1,0,centre,friendly,no_target,0.584,,,,,,,,,,,,,,,,,
,,,,,924766,m,y,r,n,14,0,2025-04-05_11h20.31.007,VisualSearchFaces,2024.2.4,MacIntel,121.9512195,,,,,,,,1487.218,1487.3252,1487.3253,1489.3248,block3,f,1,1,37,77,38,1,0,bottom_left,threatening,no_target,0.942,,,,,,,,,,,,,,,,,
,,,,,924766,m,y,r,n,14,0,2025-04-05_11h20.31.007,VisualSearchFaces,2024.2.4,MacIntel,121.9512195,,,,,,,,1490.3271,1490.433,1490.4331,1492.4334,block3,j,1,1,38,78,13,1,1,bottom_left,friendly,neutral,0.4428,,,,,,,,,,,,,,,,,
,,,,,924766,m,y,r,n,14,0,2025-04-05_11h20.31.007,VisualSearchFaces,2024.2.4,MacIntel,121.9512195,,,,,,,,1493.4344,1493.5418,1493.5418,1495.5416,block3,f,1,1,39,79,27,1,0,top_right,neutral,no_target,0.5512,,,,,,,,,,,,,,,,,
,,,,,924766,m,y,r,n,14,0,2025-04-05_11h20.31.007,VisualSearchFaces,2024.2.4,MacIntel,121.9512195,,,1591.9526,1597.3582,space,5.3937,,1598.3593,1598.4664,1598.4664,1600.4661,block4,j,1,0,0,0,4,1,1,bottom_right,neutral,friendly,0.6102,,1495.543,1591.95,space,96.3932,,,,,,,,,,,,
,,,,,924766,m,y,r,n,14,0,2025-04-05_11h20.31.007,VisualSearchFaces,2024.2.4,MacIntel,121.9512195,,,,,,,,1601.4677,1601.5739,1601.5739,1603.5744,block4,j,1,0,1,1,19,1,1,bottom_right,threatening,neutral,0.4011,,,,,,,,,,,,,,,,,
,,,,,924766,m,y,r,n,14,0,2025-04-05_11h20.31.007,VisualSearchFaces,2024.2.4,MacIntel,121.9512195,,,,,,,,1604.5757,1604.6831,1604.6832,1606.6828,block4,j,1,0,2,2,16,1,1,top_left,threatening,neutral,0.3909,,,,,,,,,,,,,,,,,
,,,,,924766,m,y,r,n,14,0,2025-04-05_11h20.31.007,VisualSearchFaces,2024.2.4,MacIntel,121.9512195,,,,,,,,1607.6835,1607.7912,1607.7913,1609.7912,block4,j,1,0,3,3,15,1,1,centre,threatening,neutral,0.4169,,,,,,,,,,,,,,,,,
,,,,,924766,m,y,r,n,14,0,2025-04-05_11h20.31.007,VisualSearchFaces,2024.2.4,MacIntel,121.9512195,,,,,,,,1610.7925,1610.8914,1610.8914,1612.8913,block4,f,1,0,4,4,27,1,0,top_right,neutral,no_target,0.4001,,,,,,,,,,,,,,,,,
,,,,,924766,m,y,r,n,14,0,2025-04-05_11h20.31.007,VisualSearchFaces,2024.2.4,MacIntel,121.9512195,,,,,,,,1613.8925,1613.9994,1613.9995,1615.9996,block4,f,1,0,5,5,39,1,0,bottom_right,threatening,no_target,0.6037,,,,,,,,,,,,,,,,,
,,,,,924766,m,y,r,n,14,0,2025-04-05_11h20.31.007,VisualSearchFaces,2024.2.4,MacIntel,121.9512195,,,,,,,,1617.0001,1617.0992,1617.0993,1619.0993,block4,j,1,0,6,6,14,1,1,bottom_right,friendly,neutral,0.4171,,,,,,,,,,,,,,,,,
,,,,,924766,m,y,r,n,14,0,2025-04-05_11h20.31.007,VisualSearchFaces,2024.2.4,MacIntel,121.9512195,,,,,,,,1620.1006,1620.2078,1620.2079,1622.2069,block4,f,1,0,7,7,34,1,0,bottom_right,friendly,no_target,0.5349,,,,,,,,,,,,,,,,,
,,,,,924766,m,y,r,n,14,0,2025-04-05_11h20.31.007,VisualSearchFaces,2024.2.4,MacIntel,121.9512195,,,,,,,,1623.2089,1623.3162,1623.3164,1625.3161,block4,f,1,0,8,8,30,1,0,centre,friendly,no_target,0.3919,,,,,,,,,,,,,,,,,
,,,,,924766,m,y,r,n,14,0,2025-04-05_11h20.31.007,VisualSearchFaces,2024.2.4,MacIntel,121.9512195,,,,,,,,1626.3174,1626.4236,1626.4236,1628.4242,block4,f,1,0,9,9,26,1,0,top_left,neutral,no_target,1.5217,,,,,,,,,,,,,,,,,
,,,,,924766,m,y,r,n,14,0,2025-04-05_11h20.31.007,VisualSearchFaces,2024.2.4,MacIntel,121.9512195,,,,,,,,1629.4254,1629.533,1629.533,1631.533,block4,j,1,0,10,10,10,1,1,centre,friendly,neutral,1.5797,,,,,,,,,,,,,,,,,
,,,,,924766,m,y,r,n,14,0,2025-04-05_11h20.31.007,VisualSearchFaces,2024.2.4,MacIntel,121.9512195,,,,,,,,1632.5338,1632.6411,1632.6412,1634.6411,block4,j,1,0,11,11,17,1,1,top_right,threatening,neutral,0.5682,,,,,,,,,,,,,,,,,
,,,,,924766,m,y,r,n,14,0,2025-04-05_11h20.31.007,VisualSearchFaces,2024.2.4,MacIntel,121.9512195,,,,,,,,1635.6421,1635.7496,1635.7496,1637.7494,block4,j,1,0,12,12,5,1,1,centre,neutral,threatening,1.0333,,,,,,,,,,,,,,,,,
,,,,,924766,m,y,r,n,14,0,2025-04-05_11h20.31.007,VisualSearchFaces,2024.2.4,MacIntel,121.9512195,,,,,,,,1638.7506,1638.8579,1638.8579,1640.8576,block4,f,1,0,13,13,37,1,0,top_right,threatening,no_target,0.7444,,,,,,,,,,,,,,,,,
,,,,,924766,m,y,r,n,14,0,2025-04-05_11h20.31.007,VisualSearchFaces,2024.2.4,MacIntel,121.9512195,,,,,,,,1641.8589,1641.9653,1641.9654,1643.966,block4,f,1,0,14,14,36,1,0,top_left,threatening,no_target,0.6171,,,,,,,,,,,,,,,,,
,,,,,924766,m,y,r,n,14,0,2025-04-05_11h20.31.007,VisualSearchFaces,2024.2.4,MacIntel,121.9512195,,,,,,,,1644.9674,1645.0743,1645.0744,1647.0743,block4,j,1,0,15,15,9,1,1,bottom_right,neutral,threatening,0.6726,,,,,,,,,,,,,,,,,
,,,,,924766,m,y,r,n,14,0,2025-04-05_11h20.31.007,VisualSearchFaces,2024.2.4,MacIntel,121.9512195,,,,,,,,1648.0758,1648.182,1648.182,1650.1827,block4,j,1,0,16,16,1,1,1,top_left,neutral,friendly,0.5045,,,,,,,,,,,,,,,,,
,,,,,924766,m,y,r,n,14,0,2025-04-05_11h20.31.007,VisualSearchFaces,2024.2.4,MacIntel,121.9512195,,,,,,,,1651.1837,1651.2912,1651.2912,1653.291,block4,f,1,0,17,17,33,1,0,bottom_left,friendly,no_target,0.6381,,,,,,,,,,,,,,,,,
,,,,,924766,m,y,r,n,14,0,2025-04-05_11h20.31.007,VisualSearchFaces,2024.2.4,MacIntel,121.9512195,,,,,,,,1654.2921,1654.3995,1654.3995,1656.3985,block4,j,1,0,18,18,12,1,1,top_right,friendly,neutral,0.5252,,,,,,,,,,,,,,,,,
,,,,,924766,m,y,r,n,14,0,2025-04-05_11h20.31.007,VisualSearchFaces,2024.2.4,MacIntel,121.9512195,,,,,,,,1657.4002,1657.5076,1657.5076,1659.5077,block4,j,1,0,19,19,8,1,1,bottom_left,neutral,threatening,0.4267,,,,,,,,,,,,,,,,,
,,,,,924766,m,y,r,n,14,0,2025-04-05_11h20.31.007,VisualSearchFaces,2024.2.4,MacIntel,121.9512195,,,,,,,,1660.5079,1660.6076,1660.6076,1662.6078,block4,j,1,0,20,20,7,1,1,top_right,neutral,threatening,0.3682,,,,,,,,,,,,,,,,,
,,,,,924766,m,y,r,n,14,0,2025-04-05_11h20.31.007,VisualSearchFaces,2024.2.4,MacIntel,121.9512195,,,,,,,,1663.6092,1663.7161,1663.7162,1665.7151,block4,j,1,0,21,21,6,1,1,top_left,neutral,threatening,0.429,,,,,,,,,,,,,,,,,
,,,,,924766,m,y,r,n,14,0,2025-04-05_11h20.31.007,VisualSearchFaces,2024.2.4,MacIntel,121.9512195,,,,,,,,1666.7173,1666.8235,1666.8236,1668.8242,block4,j,0,0,22,22,35,1,0,centre,threatening,no_target,1.1753,,,,,,,,,,,,,,,,,
,,,,,924766,m,y,r,n,14,0,2025-04-05_11h20.31.007,VisualSearchFaces,2024.2.4,MacIntel,121.9512195,,,,,,,,1669.8257,1669.9243,1669.9243,1671.9232,block4,j,0,0,23,23,31,1,0,top_left,friendly,no_target,0.4187,,,,,,,,,,,,,,,,,
,,,,,924766,m,y,r,n,14,0,2025-04-05_11h20.31.007,VisualSearchFaces,2024.2.4,MacIntel,121.9512195,,,,,,,,1672.9265,1673.0318,1673.0319,1675.0327,block4,f,1,0,24,24,20,1,0,centre,neutral,no_target,0.5438,,,,,,,,,,,,,,,,,
,,,,,924766,m,y,r,n,14,0,2025-04-05_11h20.31.007,VisualSearchFaces,2024.2.4,MacIntel,121.9512195,,,,,,,,1676.0338,1676.1325,1676.1325,1678.1325,block4,j,1,0,25,25,11,1,1,top_left,friendly,neutral,0.5408,,,,,,,,,,,,,,,,,
,,,,,924766,m,y,r,n,14,0,2025-04-05_11h20.31.007,VisualSearchFaces,2024.2.4,MacIntel,121.9512195,,,,,,,,1679.1351,1679.2403,1679.2404,1681.2407,block4,j,1,0,26,26,2,1,1,top_right,neutral,friendly,0.4332,,,,,,,,,,,,,,,,,
,,,,,924766,m,y,r,n,14,0,2025-04-05_11h20.31.007,VisualSearchFaces,2024.2.4,MacIntel,121.9512195,,,,,,,,1682.2433,1682.3492,1682.3492,1684.3491,block4,f,1,0,27,27,32,1,0,top_right,friendly,no_target,0.6658,,,,,,,,,,,,,,,,,
,,,,,924766,m,y,r,n,14,0,2025-04-05_11h20.31.007,VisualSearchFaces,2024.2.4,MacIntel,121.9512195,,,,,,,,1685.3503,1685.4495,1685.4495,1687.4491,block4,j,1,0,28,28,3,1,1,bottom_left,neutral,friendly,0.4236,,,,,,,,,,,,,,,,,
,,,,,924766,m,y,r,n,14,0,2025-04-05_11h20.31.007,VisualSearchFaces,2024.2.4,MacIntel,121.9512195,,,,,,,,1688.4504,1688.5575,1688.5575,1690.5573,block4,j,1,0,29,29,0,1,1,centre,neutral,friendly,0.5256,,,,,,,,,,,,,,,,,
,,,,,924766,m,y,r,n,14,0,2025-04-05_11h20.31.007,VisualSearchFaces,2024.2.4,MacIntel,121.9512195,,,,,,,,1691.5585,1691.6659,1691.6659,1693.666,block4,j,0,0,30,30,38,1,0,bottom_left,threatening,no_target,0.691,,,,,,,,,,,,,,,,,
,,,,,924766,m,y,r,n,14,0,2025-04-05_11h20.31.007,VisualSearchFaces,2024.2.4,MacIntel,121.9512195,,,,,,,,1694.6671,1694.7734,1694.7734,1696.7731,block4,f,1,0,31,31,21,1,0,top_left,neutral,no_target,0.5001,,,,,,,,,,,,,,,,,
,,,,,924766,m,y,r,n,14,0,2025-04-05_11h20.31.007,VisualSearchFaces,2024.2.4,MacIntel,121.9512195,,,,,,,,1697.7753,1697.8815,1697.8816,1699.8817,block4,j,1,0,32,32,13,1,1,bottom_left,friendly,neutral,0.4846,,,,,,,,,,,,,,,,,
,,,,,924766,m,y,r,n,14,0,2025-04-05_11h20.31.007,VisualSearchFaces,2024.2.4,MacIntel,121.9512195,,,,,,,,1700.8836,1700.9908,1700.9908,1702.9899,block4,f,1,0,33,33,28,1,0,bottom_left,neutral,no_target,0.4298,,,,,,,,,,,,,,,,,
,,,,,924766,m,y,r,n,14,0,2025-04-05_11h20.31.007,VisualSearchFaces,2024.2.4,MacIntel,121.9512195,,,,,,,,1703.9924,1704.0991,1704.0991,1706.0993,block4,f,1,0,34,34,23,1,0,bottom_left,neutral,no_target,0.3673,,,,,,,,,,,,,,,,,
,,,,,924766,m,y,r,n,14,0,2025-04-05_11h20.31.007,VisualSearchFaces,2024.2.4,MacIntel,121.9512195,,,,,,,,1707.1002,1707.2072,1707.2073,1709.2075,block4,f,1,0,35,35,24,1,0,bottom_right,neutral,no_target,0.4259,,,,,,,,,,,,,,,,,
,,,,,924766,m,y,r,n,14,0,2025-04-05_11h20.31.007,VisualSearchFaces,2024.2.4,MacIntel,121.9512195,,,,,,,,1710.2083,1710.3157,1710.3158,1712.3154,block4,f,1,0,36,36,22,1,0,top_right,neutral,no_target,0.3836,,,,,,,,,,,,,,,,,
,,,,,924766,m,y,r,n,14,0,2025-04-05_11h20.31.007,VisualSearchFaces,2024.2.4,MacIntel,121.9512195,,,,,,,,1713.3168,1713.424,1713.424,1715.424,block4,f,1,0,37,37,25,1,0,centre,neutral,no_target,0.3425,,,,,,,,,,,,,,,,,
,,,,,924766,m,y,r,n,14,0,2025-04-05_11h20.31.007,VisualSearchFaces,2024.2.4,MacIntel,121.9512195,,,,,,,,1716.4252,1716.5315,1716.5315,1718.5322,block4,f,1,0,38,38,29,1,0,bottom_right,neutral,no_target,0.3684,,,,,,,,,,,,,,,,,
,,,,,924766,m,y,r,n,14,0,2025-04-05_11h20.31.007,VisualSearchFaces,2024.2.4,MacIntel,121.9512195,,,,,,,,1719.5334,1719.6405,1719.6405,1721.64,block4,j,1,0,39,39,18,1,1,bottom_left,threatening,neutral,0.3872,,,,,,,,,,,,,,,,,
,,,,,924766,m,y,r,n,14,0,2025-04-05_11h20.31.007,VisualSearchFaces,2024.2.4,MacIntel,121.9512195,,,,,,,,1722.6417,1722.7489,1722.749,1724.7489,block4,j,0,1,0,40,22,1,0,top_right,neutral,no_target,1.6969,,,,,,,,,,,,,,,,,
,,,,,924766,m,y,r,n,14,0,2025-04-05_11h20.31.007,VisualSearchFaces,2024.2.4,MacIntel,121.9512195,,,,,,,,1725.7515,1725.8572,1725.8573,1727.8573,block4,j,1,1,1,41,12,1,1,top_right,friendly,neutral,1.3196,,,,,,,,,,,,,,,,,
,,,,,924766,m,y,r,n,14,0,2025-04-05_11h20.31.007,VisualSearchFaces,2024.2.4,MacIntel,121.9512195,,,,,,,,1728.8589,1728.9656,1728.9656,1730.9656,block4,f,1,1,2,42,25,1,0,centre,neutral,no_target,0.6755,,,,,,,,,,,,,,,,,
,,,,,924766,m,y,r,n,14,0,2025-04-05_11h20.31.007,VisualSearchFaces,2024.2.4,MacIntel,121.9512195,,,,,,,,1731.9682,1732.0739,1732.074,1734.0739,block4,j,0,1,3,43,38,1,0,bottom_left,threatening,no_target,0.4872,,,,,,,,,,,,,,,,,
,,,,,924766,m,y,r,n,14,0,2025-04-05_11h20.31.007,VisualSearchFaces,2024.2.4,MacIntel,121.9512195,,,,,,,,1735.0744,1735.1738,1735.1738,1737.1738,block4,f,1,1,4,44,29,1,0,bottom_right,neutral,no_target,0.505,,,,,,,,,,,,,,,,,
,,,,,924766,m,y,r,n,14,0,2025-04-05_11h20.31.007,VisualSearchFaces,2024.2.4,MacIntel,121.9512195,,,,,,,,1738.1763,1738.2819,1738.2821,1740.2813,block4,j,1,1,5,45,16,1,1,top_left,threatening,neutral,0.5242,,,,,,,,,,,,,,,,,
,,,,,924766,m,y,r,n,14,0,2025-04-05_11h20.31.007,VisualSearchFaces,2024.2.4,MacIntel,121.9512195,,,,,,,,1741.2839,1741.3906,1741.3906,1743.3907,block4,j,1,1,6,46,18,1,1,bottom_left,threatening,neutral,0.4598,,,,,,,,,,,,,,,,,
,,,,,924766,m,y,r,n,14,0,2025-04-05_11h20.31.007,VisualSearchFaces,2024.2.4,MacIntel,121.9512195,,,,,,,,1744.3932,1744.4989,1744.499,1746.4989,block4,j,1,1,7,47,9,1,1,bottom_right,neutral,threatening,0.4166,,,,,,,,,,,,,,,,,
,,,,,924766,m,y,r,n,14,0,2025-04-05_11h20.31.007,VisualSearchFaces,2024.2.4,MacIntel,121.9512195,,,,,,,,1747.4999,1747.6073,1747.6073,1749.6073,block4,j,0,1,8,48,33,1,0,bottom_left,friendly,no_target,0.4098,,,,,,,,,,,,,,,,,
,,,,,924766,m,y,r,n,14,0,2025-04-05_11h20.31.007,VisualSearchFaces,2024.2.4,MacIntel,121.9512195,,,,,,,,1750.6082,1750.7154,1750.7154,1752.7154,block4,f,1,1,9,49,26,1,0,top_left,neutral,no_target,0.4945,,,,,,,,,,,,,,,,,
,,,,,924766,m,y,r,n,14,0,2025-04-05_11h20.31.007,VisualSearchFaces,2024.2.4,MacIntel,121.9512195,,,,,,,,1753.7168,1753.8237,1753.8237,1755.8237,block4,j,1,1,10,50,7,1,1,top_right,neutral,threatening,0.3589,,,,,,,,,,,,,,,,,
,,,,,924766,m,y,r,n,14,0,2025-04-05_11h20.31.007,VisualSearchFaces,2024.2.4,MacIntel,121.9512195,,,,,,,,1756.8255,1756.9321,1756.9321,1758.932,block4,f,1,1,11,51,21,1,0,top_left,neutral,no_target,1.0929,,,,,,,,,,,,,,,,,
,,,,,924766,m,y,r,n,14,0,2025-04-05_11h20.31.007,VisualSearchFaces,2024.2.4,MacIntel,121.9512195,,,,,,,,1759.9333,1760.0406,1760.0407,1762.0404,block4,f,1,1,12,52,27,1,0,top_right,neutral,no_target,0.5594,,,,,,,,,,,,,,,,,
,,,,,924766,m,y,r,n,14,0,2025-04-05_11h20.31.007,VisualSearchFaces,2024.2.4,MacIntel,121.9512195,,,,,,,,1763.0418,1763.1488,1763.1489,1765.1488,block4,j,1,1,13,53,0,1,1,centre,neutral,friendly,0.4178,,,,,,,,,,,,,,,,,
,,,,,924766,m,y,r,n,14,0,2025-04-05_11h20.31.007,VisualSearchFaces,2024.2.4,MacIntel,121.9512195,,,,,,,,1766.1501,1766.2564,1766.2565,1768.2572,block4,j,0,1,14,54,30,1,0,centre,friendly,no_target,0.5264,,,,,,,,,,,,,,,,,
,,,,,924766,m,y,r,n,14,0,2025-04-05_11h20.31.007,VisualSearchFaces,2024.2.4,MacIntel,121.9512195,,,,,,,,1769.2584,1769.3645,1769.3646,1771.3656,block4,f,1,1,15,55,35,1,0,centre,threatening,no_target,1.3087,,,,,,,,,,,,,,,,,
,,,,,924766,m,y,r,n,14,0,2025-04-05_11h20.31.007,VisualSearchFaces,2024.2.4,MacIntel,121.9512195,,,,,,,,1772.3658,1772.4733,1772.4733,1774.4728,block4,j,1,1,16,56,14,1,1,bottom_right,friendly,neutral,0.5013,,,,,,,,,,,,,,,,,
,,,,,924766,m,y,r,n,14,0,2025-04-05_11h20.31.007,VisualSearchFaces,2024.2.4,MacIntel,121.9512195,,,,,,,,1775.4746,1775.582,1775.582,1777.5821,block4,j,1,1,17,57,19,1,1,bottom_right,threatening,neutral,0.5085,,,,,,,,,,,,,,,,,
,,,,,924766,m,y,r,n,14,0,2025-04-05_11h20.31.007,VisualSearchFaces,2024.2.4,MacIntel,121.9512195,,,,,,,,1778.5833,1778.6904,1778.6904,1780.6895,block4,j,1,1,18,58,13,1,1,bottom_left,friendly,neutral,0.48,,,,,,,,,,,,,,,,,
,,,,,924766,m,y,r,n,14,0,2025-04-05_11h20.31.007,VisualSearchFaces,2024.2.4,MacIntel,121.9512195,,,,,,,,1781.6915,1781.7985,1781.7986,1783.7987,block4,f,0,1,19,59,10,1,1,centre,friendly,neutral,0.9328,,,,,,,,,,,,,,,,,
,,,,,924766,m,y,r,n,14,0,2025-04-05_11h20.31.007,VisualSearchFaces,2024.2.4,MacIntel,121.9512195,,,,,,,,1784.8008,1784.907,1784.9071,1786.9069,block4,j,1,1,20,60,5,1,1,centre,neutral,threatening,0.4846,,,,,,,,,,,,,,,,,
,,,,,924766,m,y,r,n,14,0,2025-04-05_11h20.31.007,VisualSearchFaces,2024.2.4,MacIntel,121.9512195,,,,,,,,1787.9093,1788.0154,1788.0155,1790.0143,block4,j,0,1,21,61,39,1,0,bottom_right,threatening,no_target,0.8244,,,,,,,,,,,,,,,,,
,,,,,924766,m,y,r,n,14,0,2025-04-05_11h20.31.007,VisualSearchFaces,2024.2.4,MacIntel,121.9512195,,,,,,,,1791.0174,1791.123,1791.123,1793.1235,block4,j,1,1,22,62,6,1,1,top_left,neutral,threatening,0.6361,,,,,,,,,,,,,,,,,
,,,,,924766,m,y,r,n,14,0,2025-04-05_11h20.31.007,VisualSearchFaces,2024.2.4,MacIntel,121.9512195,,,,,,,,1794.1251,1794.2312,1794.2312,1796.2319,block4,f,1,1,23,63,37,1,0,top_right,threatening,no_target,0.7165,,,,,,,,,,,,,,,,,
,,,,,924766,m,y,r,n,14,0,2025-04-05_11h20.31.007,VisualSearchFaces,2024.2.4,MacIntel,121.9512195,,,,,,,,1797.2335,1797.3402,1797.3403,1799.3404,block4,j,1,1,24,64,11,1,1,top_left,friendly,neutral,0.4164,,,,,,,,,,,,,,,,,
,,,,,924766,m,y,r,n,14,0,2025-04-05_11h20.31.007,VisualSearchFaces,2024.2.4,MacIntel,121.9512195,,,,,,,,1800.3417,1800.4486,1800.4488,1802.4488,block4,j,1,1,25,65,1,1,1,top_left,neutral,friendly,0.5265,,,,,,,,,,,,,,,,,
,,,,,924766,m,y,r,n,14,0,2025-04-05_11h20.31.007,VisualSearchFaces,2024.2.4,MacIntel,121.9512195,,,,,,,,1803.4499,1803.5565,1803.5566,1805.557,block4,f,1,1,26,66,36,1,0,top_left,threatening,no_target,1.0595,,,,,,,,,,,,,,,,,
,,,,,924766,m,y,r,n,14,0,2025-04-05_11h20.31.007,VisualSearchFaces,2024.2.4,MacIntel,121.9512195,,,,,,,,1806.5581,1806.6643,1806.6644,1808.6652,block4,f,1,1,27,67,34,1,0,bottom_right,friendly,no_target,1.1936,,,,,,,,,,,,,,,,,
,,,,,924766,m,y,r,n,14,0,2025-04-05_11h20.31.007,VisualSearchFaces,2024.2.4,MacIntel,121.9512195,,,,,,,,1809.6657,1809.7655,1809.7655,1811.7651,block4,f,1,1,28,68,31,1,0,top_left,friendly,no_target,0.5926,,,,,,,,,,,,,,,,,
,,,,,924766,m,y,r,n,14,0,2025-04-05_11h20.31.007,VisualSearchFaces,2024.2.4,MacIntel,121.9512195,,,,,,,,1812.7657,1812.8735,1812.8735,1814.8733,block4,f,1,1,29,69,32,1,0,top_right,friendly,no_target,0.608,,,,,,,,,,,,,,,,,
,,,,,924766,m,y,r,n,14,0,2025-04-05_11h20.31.007,VisualSearchFaces,2024.2.4,MacIntel,121.9512195,,,,,,,,1815.8745,1815.9819,1815.982,1817.9812,block4,j,1,1,30,70,8,1,1,bottom_left,neutral,threatening,0.5258,,,,,,,,,,,,,,,,,
,,,,,924766,m,y,r,n,14,0,2025-04-05_11h20.31.007,VisualSearchFaces,2024.2.4,MacIntel,121.9512195,,,,,,,,1818.983,1819.0903,1819.0903,1821.0902,block4,j,1,1,31,71,2,1,1,top_right,neutral,friendly,0.579,,,,,,,,,,,,,,,,,
,,,,,924766,m,y,r,n,14,0,2025-04-05_11h20.31.007,VisualSearchFaces,2024.2.4,MacIntel,121.9512195,,,,,,,,1822.0905,1822.1902,1822.1903,1824.1894,block4,f,1,1,32,72,23,1,0,bottom_left,neutral,no_target,0.9748,,,,,,,,,,,,,,,,,
,,,,,924766,m,y,r,n,14,0,2025-04-05_11h20.31.007,VisualSearchFaces,2024.2.4,MacIntel,121.9512195,,,,,,,,1825.1919,1825.2976,1825.2976,1827.2983,block4,f,1,1,33,73,24,1,0,bottom_right,neutral,no_target,0.3874,,,,,,,,,,,,,,,,,
,,,,,924766,m,y,r,n,14,0,2025-04-05_11h20.31.007,VisualSearchFaces,2024.2.4,MacIntel,121.9512195,,,,,,,,1828.2994,1828.406,1828.406,1830.4066,block4,j,1,1,34,74,15,1,1,centre,threatening,neutral,0.5584,,,,,,,,,,,,,,,,,
,,,,,924766,m,y,r,n,14,0,2025-04-05_11h20.31.007,VisualSearchFaces,2024.2.4,MacIntel,121.9512195,,,,,,,,1831.4072,1831.5152,1831.5152,1833.5151,block4,j,1,1,35,75,3,1,1,bottom_left,neutral,friendly,0.4847,,,,,,,,,,,,,,,,,
,,,,,924766,m,y,r,n,14,0,2025-04-05_11h20.31.007,VisualSearchFaces,2024.2.4,MacIntel,121.9512195,,,,,,,,1834.5161,1834.6236,1834.6236,1836.6233,block4,j,1,1,36,76,4,1,1,bottom_right,neutral,friendly,0.4113,,,,,,,,,,,,,,,,,
,,,,,924766,m,y,r,n,14,0,2025-04-05_11h20.31.007,VisualSearchFaces,2024.2.4,MacIntel,121.9512195,,,,,,,,1837.6246,1837.7308,1837.7309,1839.7319,block4,f,1,1,37,77,28,1,0,bottom_left,neutral,no_target,0.5194,,,,,,,,,,,,,,,,,
,,,,,924766,m,y,r,n,14,0,2025-04-05_11h20.31.007,VisualSearchFaces,2024.2.4,MacIntel,121.9512195,,,,,,,,1840.7326,1840.84,1840.84,1842.8401,block4,j,1,1,38,78,17,1,1,top_right,threatening,neutral,0.6341,,,,,,,,,,,,,,,,,
,,,,,924766,m,y,r,n,14,0,2025-04-05_11h20.31.007,VisualSearchFaces,2024.2.4,MacIntel,121.9512195,,,,,,,,1843.8418,1843.9485,1843.9486,1845.9474,block4,f,1,1,39,79,20,1,0,centre,neutral,no_target,0.461,,,,,,,,,,,,,,,,,
,,,,,924766,m,y,r,n,14,0,2025-04-05_11h20.31.007,VisualSearchFaces,2024.2.4,MacIntel,121.9512195,,,,,,,,,,,,,,,,,,,,,,,,,,1845.9488,1956.8309,space,110.8698,,1956.8319,2195.0071,"Always made up of multiple components. For example circles, stripes, dots etc.",1,[2195.0051000000235],[2195.005199999988],,,,,
,,,,,924766,m,y,r,n,14,0,2025-04-05_11h20.31.007,VisualSearchFaces,2024.2.4,MacIntel,121.9512195,,,,,,,,,,,,,,,,,,,,,,,,,,,,,,,,,,,,,2195.0075,2203.6055,space,8.5842,
