Welcome.started,Welcome.stopped,keyboard_space_welcome.keys,keyboard_space_welcome.rt,keyboard_space_welcome.duration,participant,gender,(corrected) normal vision,handedness,exp vse,session,skip_intro,date,expName,psychopyVersion,OS,frameRate,stimulus_exposure.started,stimulus_exposure.stopped,Block_intro.started,Block_intro.stopped,keyboard_space.keys,keyboard_space.rt,keyboard_space.duration,Stimulus.started,Stimulus.stopped,fixation_ending.started,fixation_ending.stopped,block_id,keyboard_response.keys,keyboard_response.corr,trials.thisRepN,trials.thisTrialN,trials.thisN,trials.thisIndex,trials.ran,target_presence,target_position,background_emotion,target_emotion,keyboard_response.rt,keyboard_response.duration,Block_outro.started,Block_outro.stopped,keyboard_space_end.keys,keyboard_space_end.rt,keyboard_space_end.duration,Question_about_stimulus.started,Question_about_stimulus.stopped,textbox_response.text,button.numClicks,button.timesOn,button.timesOff,Thanks.started,Thanks.stopped,keyboard_space_goodbye.keys,keyboard_space_goodbye.rt,keyboard_space_goodbye.duration
0.0005,39.9122,space,39.7811,,966677,f,y,r,n,11,0,2025-04-05_10h37.26.105,VisualSearchFaces,2024.2.4,Win32,59.88023952,,,,,,,,,,,,,,,,,,,,,,,,,,,,,,,,,,,,,,,,,
,,,,,966677,f,y,r,n,11,0,2025-04-05_10h37.26.105,VisualSearchFaces,2024.2.4,Win32,59.88023952,61.0477,64.0619,64.07,90.2284,space,26.1176,,91.2302,91.4948,91.4949,93.4949,practice1,,0,0,0,0,39,1,0,bottom_right,threatening,no_target,,,,,,,,,,,,,,,,,,
,,,,,966677,f,y,r,n,11,0,2025-04-05_10h37.26.105,VisualSearchFaces,2024.2.4,Win32,59.88023952,,,,,,,,94.4962,94.7607,94.7608,96.761,practice1,,0,0,1,1,1,1,1,top_left,neutral,friendly,,,,,,,,,,,,,,,,,,
,,,,,966677,f,y,r,n,11,0,2025-04-05_10h37.26.105,VisualSearchFaces,2024.2.4,Win32,59.88023952,,,,,,,,97.7632,98.0276,98.0277,100.028,practice1,,0,0,2,2,4,1,1,bottom_right,neutral,friendly,,,,,,,,,,,,,,,,,,
,,,,,966677,f,y,r,n,11,0,2025-04-05_10h37.26.105,VisualSearchFaces,2024.2.4,Win32,59.88023952,,,,,,,,101.0293,101.2947,101.2948,103.2944,practice1,j,1,0,3,3,8,1,1,bottom_left,neutral,threatening,0.8329,,,,,,,,,,,,,,,,,
,,,,,966677,f,y,r,n,11,0,2025-04-05_10h37.26.105,VisualSearchFaces,2024.2.4,Win32,59.88023952,,,,,,,,104.2962,104.5614,104.5614,106.5611,practice1,,0,0,4,4,38,1,0,bottom_left,threatening,no_target,,,,,,,,,,,,,,,,,,
,,,,,966677,f,y,r,n,11,0,2025-04-05_10h37.26.105,VisualSearchFaces,2024.2.4,Win32,59.88023952,,,,,,,,107.5626,107.8276,107.8277,109.8277,practice1,,0,0,5,5,31,1,0,top_left,friendly,no_target,,,,,,,,,,,,,,,,,,
,,,,,966677,f,y,r,n,11,0,2025-04-05_10h37.26.105,VisualSearchFaces,2024.2.4,Win32,59.88023952,,,,,,,,110.8289,111.0778,111.0779,113.0776,practice1,j,1,0,6,6,0,1,1,centre,neutral,friendly,1.5339,,,,,,,,,,,,,,,,,
,,,,,966677,f,y,r,n,11,0,2025-04-05_10h37.26.105,VisualSearchFaces,2024.2.4,Win32,59.88023952,,,,,,,,114.0795,114.3443,114.3445,116.3443,practice1,j,1,0,7,7,17,1,1,top_right,threatening,neutral,1.333,,,,,,,,,,,,,,,,,
,,,,,966677,f,y,r,n,11,0,2025-04-05_10h37.26.105,VisualSearchFaces,2024.2.4,Win32,59.88023952,,,,,,,,117.3458,117.6105,117.6106,119.6108,practice1,f,1,0,8,8,37,1,0,top_right,threatening,no_target,0.5008,,,,,,,,,,,,,,,,,
,,,,,966677,f,y,r,n,11,0,2025-04-05_10h37.26.105,VisualSearchFaces,2024.2.4,Win32,59.88023952,,,,,,,,120.6124,120.8772,120.8772,122.8775,practice1,j,1,0,9,9,9,1,1,bottom_right,neutral,threatening,0.6677,,,,,,,,,,,,,,,,,
,,,,,966677,f,y,r,n,11,0,2025-04-05_10h37.26.105,VisualSearchFaces,2024.2.4,Win32,59.88023952,,,,,,,,123.8786,124.1275,124.1275,126.1274,practice1,f,1,0,10,10,35,1,0,centre,threatening,no_target,0.9025,,,,,,,,,,,,,,,,,
,,,,,966677,f,y,r,n,11,0,2025-04-05_10h37.26.105,VisualSearchFaces,2024.2.4,Win32,59.88023952,,,,,,,,127.1288,127.3781,127.3781,129.3777,practice1,j,1,0,11,11,11,1,1,top_left,friendly,neutral,0.7328,,,,,,,,,,,,,,,,,
,,,,,966677,f,y,r,n,11,0,2025-04-05_10h37.26.105,VisualSearchFaces,2024.2.4,Win32,59.88023952,,,,,,,,130.3706,130.6274,130.6274,132.6276,practice1,j,0,0,12,12,25,1,0,centre,neutral,no_target,0.9054,,,,,,,,,,,,,,,,,
,,,,,966677,f,y,r,n,11,0,2025-04-05_10h37.26.105,VisualSearchFaces,2024.2.4,Win32,59.88023952,,,,,,,,133.629,133.8822,133.8822,135.8769,practice1,j,0,0,13,13,32,1,0,top_right,friendly,no_target,0.9298,,,,,,,,,,,,,,,,,
,,,,,966677,f,y,r,n,11,0,2025-04-05_10h37.26.105,VisualSearchFaces,2024.2.4,Win32,59.88023952,,,,,,,,136.8788,137.1434,137.1434,139.1433,practice1,,0,0,14,14,29,1,0,bottom_right,neutral,no_target,,,,,,,,,,,,,,,,,,
,,,,,966677,f,y,r,n,11,0,2025-04-05_10h37.26.105,VisualSearchFaces,2024.2.4,Win32,59.88023952,,,,,,,,140.1455,140.4079,140.408,142.41,practice1,f,1,0,15,15,26,1,0,top_left,neutral,no_target,1.6014,,,,,,,,,,,,,,,,,
,,,,,966677,f,y,r,n,11,0,2025-04-05_10h37.26.105,VisualSearchFaces,2024.2.4,Win32,59.88023952,,,,,,,,143.4121,143.6608,143.6609,145.6605,practice1,f,1,0,16,16,28,1,0,bottom_left,neutral,no_target,0.9006,,,,,,,,,,,,,,,,,
,,,,,966677,f,y,r,n,11,0,2025-04-05_10h37.26.105,VisualSearchFaces,2024.2.4,Win32,59.88023952,,,,,,,,146.6612,146.9106,146.9106,148.9103,practice1,j,1,0,17,17,3,1,1,bottom_left,neutral,friendly,0.753,,,,,,,,,,,,,,,,,
,,,,,966677,f,y,r,n,11,0,2025-04-05_10h37.26.105,VisualSearchFaces,2024.2.4,Win32,59.88023952,,,,,,,,149.9121,150.1768,150.1768,152.177,practice1,j,1,0,18,18,10,1,1,centre,friendly,neutral,1.2691,,,,,,,,,,,,,,,,,
,,,,,966677,f,y,r,n,11,0,2025-04-05_10h37.26.105,VisualSearchFaces,2024.2.4,Win32,59.88023952,,,,,,,,153.1795,153.444,153.444,155.4431,practice1,j,1,0,19,19,14,1,1,bottom_right,friendly,neutral,0.7961,,,,,,,,,,,,,,,,,
,,,,,966677,f,y,r,n,11,0,2025-04-05_10h37.26.105,VisualSearchFaces,2024.2.4,Win32,59.88023952,,,,,,,,156.4458,156.7101,156.7102,158.7104,practice1,f,1,0,20,20,23,1,0,bottom_left,neutral,no_target,0.7685,,,,,,,,,,,,,,,,,
,,,,,966677,f,y,r,n,11,0,2025-04-05_10h37.26.105,VisualSearchFaces,2024.2.4,Win32,59.88023952,,,,,,,,159.712,159.977,159.977,161.9768,practice1,f,1,0,21,21,30,1,0,centre,friendly,no_target,1.1334,,,,,,,,,,,,,,,,,
,,,,,966677,f,y,r,n,11,0,2025-04-05_10h37.26.105,VisualSearchFaces,2024.2.4,Win32,59.88023952,,,,,,,,162.9789,163.2437,163.2438,165.2436,practice1,j,1,0,22,22,6,1,1,top_left,neutral,threatening,0.8841,,,,,,,,,,,,,,,,,
,,,,,966677,f,y,r,n,11,0,2025-04-05_10h37.26.105,VisualSearchFaces,2024.2.4,Win32,59.88023952,,,,,,,,166.2452,166.505,166.5051,168.4933,practice1,f,1,0,23,23,22,1,0,top_right,neutral,no_target,0.8382,,,,,,,,,,,,,,,,,
,,,,,966677,f,y,r,n,11,0,2025-04-05_10h37.26.105,VisualSearchFaces,2024.2.4,Win32,59.88023952,,,,,,,,169.4949,169.7486,169.7486,171.7435,practice1,j,1,0,24,24,19,1,1,bottom_right,threatening,neutral,0.8614,,,,,,,,,,,,,,,,,
,,,,,966677,f,y,r,n,11,0,2025-04-05_10h37.26.105,VisualSearchFaces,2024.2.4,Win32,59.88023952,,,,,,,,172.7443,172.9931,172.9932,174.9932,practice1,f,1,0,25,25,21,1,0,top_left,neutral,no_target,1.5866,,,,,,,,,,,,,,,,,
,,,,,966677,f,y,r,n,11,0,2025-04-05_10h37.26.105,VisualSearchFaces,2024.2.4,Win32,59.88023952,,,,,,,,175.995,176.2602,176.2603,178.2601,practice1,j,1,0,26,26,13,1,1,bottom_left,friendly,neutral,1.1704,,,,,,,,,,,,,,,,,
,,,,,966677,f,y,r,n,11,0,2025-04-05_10h37.26.105,VisualSearchFaces,2024.2.4,Win32,59.88023952,,,,,,,,179.2617,179.5269,179.5269,181.5262,practice1,j,1,0,27,27,18,1,1,bottom_left,threatening,neutral,0.8179,,,,,,,,,,,,,,,,,
,,,,,966677,f,y,r,n,11,0,2025-04-05_10h37.26.105,VisualSearchFaces,2024.2.4,Win32,59.88023952,,,,,,,,182.5283,182.7934,182.7935,184.7933,practice1,f,1,0,28,28,24,1,0,bottom_right,neutral,no_target,0.6502,,,,,,,,,,,,,,,,,
,,,,,966677,f,y,r,n,11,0,2025-04-05_10h37.26.105,VisualSearchFaces,2024.2.4,Win32,59.88023952,,,,,,,,185.7948,186.0437,186.0437,188.0432,practice1,j,1,0,29,29,5,1,1,centre,neutral,threatening,0.6021,,,,,,,,,,,,,,,,,
,,,,,966677,f,y,r,n,11,0,2025-04-05_10h37.26.105,VisualSearchFaces,2024.2.4,Win32,59.88023952,,,,,,,,189.0446,189.2934,189.2934,191.2932,practice1,f,0,0,30,30,12,1,1,top_right,friendly,neutral,0.9163,,,,,,,,,,,,,,,,,
,,,,,966677,f,y,r,n,11,0,2025-04-05_10h37.26.105,VisualSearchFaces,2024.2.4,Win32,59.88023952,,,,,,,,192.2949,192.5599,192.5599,194.5598,practice1,j,1,0,31,31,2,1,1,top_right,neutral,friendly,1.2181,,,,,,,,,,,,,,,,,
,,,,,966677,f,y,r,n,11,0,2025-04-05_10h37.26.105,VisualSearchFaces,2024.2.4,Win32,59.88023952,,,,,,,,195.5616,195.826,195.8261,197.8266,practice1,f,1,0,32,32,20,1,0,centre,neutral,no_target,1.0011,,,,,,,,,,,,,,,,,
,,,,,966677,f,y,r,n,11,0,2025-04-05_10h37.26.105,VisualSearchFaces,2024.2.4,Win32,59.88023952,,,,,,,,198.8283,199.0931,199.0932,201.093,practice1,f,1,0,33,33,34,1,0,bottom_right,friendly,no_target,1.1996,,,,,,,,,,,,,,,,,
,,,,,966677,f,y,r,n,11,0,2025-04-05_10h37.26.105,VisualSearchFaces,2024.2.4,Win32,59.88023952,,,,,,,,202.0948,202.3593,202.3593,204.3597,practice1,j,1,0,34,34,7,1,1,top_right,neutral,threatening,0.7014,,,,,,,,,,,,,,,,,
,,,,,966677,f,y,r,n,11,0,2025-04-05_10h37.26.105,VisualSearchFaces,2024.2.4,Win32,59.88023952,,,,,,,,205.3606,205.6097,205.6098,207.6092,practice1,f,1,0,35,35,27,1,0,top_right,neutral,no_target,0.9662,,,,,,,,,,,,,,,,,
,,,,,966677,f,y,r,n,11,0,2025-04-05_10h37.26.105,VisualSearchFaces,2024.2.4,Win32,59.88023952,,,,,,,,208.611,208.8764,208.8765,210.8762,practice1,j,1,0,36,36,15,1,1,centre,threatening,neutral,0.8337,,,,,,,,,,,,,,,,,
,,,,,966677,f,y,r,n,11,0,2025-04-05_10h37.26.105,VisualSearchFaces,2024.2.4,Win32,59.88023952,,,,,,,,211.8778,212.143,212.1431,214.1427,practice1,j,1,0,37,37,16,1,1,top_left,threatening,neutral,0.7163,,,,,,,,,,,,,,,,,
,,,,,966677,f,y,r,n,11,0,2025-04-05_10h37.26.105,VisualSearchFaces,2024.2.4,Win32,59.88023952,,,,,,,,215.1436,215.3928,215.3929,217.3925,practice1,f,1,0,38,38,36,1,0,top_left,threatening,no_target,1.051,,,,,,,,,,,,,,,,,
,,,,,966677,f,y,r,n,11,0,2025-04-05_10h37.26.105,VisualSearchFaces,2024.2.4,Win32,59.88023952,,,,,,,,218.3945,218.6596,218.6596,220.6593,practice1,f,1,0,39,39,33,1,0,bottom_left,friendly,no_target,0.7657,,,,,,,,,,,,,,,,,
,,,,,966677,f,y,r,n,11,0,2025-04-05_10h37.26.105,VisualSearchFaces,2024.2.4,Win32,59.88023952,,,271.6978,278.942,space,7.1822,,279.9432,280.042,280.0421,282.0413,practice2,f,1,0,0,0,34,1,0,bottom_right,friendly,no_target,1.4858,,220.6602,271.6931,space,51.0044,,,,,,,,,,,,
,,,,,966677,f,y,r,n,11,0,2025-04-05_10h37.26.105,VisualSearchFaces,2024.2.4,Win32,59.88023952,,,,,,,,283.0432,283.1587,283.1588,285.1586,practice2,j,1,0,1,1,5,1,1,centre,neutral,threatening,0.6507,,,,,,,,,,,,,,,,,
,,,,,966677,f,y,r,n,11,0,2025-04-05_10h37.26.105,VisualSearchFaces,2024.2.4,Win32,59.88023952,,,,,,,,286.1601,286.2753,286.2753,288.2748,practice2,j,1,0,2,2,10,1,1,centre,friendly,neutral,0.7508,,,,,,,,,,,,,,,,,
,,,,,966677,f,y,r,n,11,0,2025-04-05_10h37.26.105,VisualSearchFaces,2024.2.4,Win32,59.88023952,,,,,,,,289.2773,289.3916,289.3916,291.3918,practice2,f,1,0,3,3,25,1,0,centre,neutral,no_target,0.8675,,,,,,,,,,,,,,,,,
,,,,,966677,f,y,r,n,11,0,2025-04-05_10h37.26.105,VisualSearchFaces,2024.2.4,Win32,59.88023952,,,,,,,,292.3932,292.5086,292.5087,294.5085,practice2,j,1,0,4,4,16,1,1,top_left,threatening,neutral,0.7498,,,,,,,,,,,,,,,,,
,,,,,966677,f,y,r,n,11,0,2025-04-05_10h37.26.105,VisualSearchFaces,2024.2.4,Win32,59.88023952,,,,,,,,295.51,295.625,295.6251,297.6243,practice2,j,0,0,5,5,31,1,0,top_left,friendly,no_target,1.5169,,,,,,,,,,,,,,,,,
,,,,,966677,f,y,r,n,11,0,2025-04-05_10h37.26.105,VisualSearchFaces,2024.2.4,Win32,59.88023952,,,,,,,,298.6265,298.7412,298.7412,300.7418,practice2,j,1,0,6,6,11,1,1,top_left,friendly,neutral,0.8354,,,,,,,,,,,,,,,,,
,,,,,966677,f,y,r,n,11,0,2025-04-05_10h37.26.105,VisualSearchFaces,2024.2.4,Win32,59.88023952,,,,,,,,301.7433,301.842,301.842,303.8417,practice2,f,1,0,7,7,24,1,0,bottom_right,neutral,no_target,0.9662,,,,,,,,,,,,,,,,,
,,,,,966677,f,y,r,n,11,0,2025-04-05_10h37.26.105,VisualSearchFaces,2024.2.4,Win32,59.88023952,,,,,,,,304.8436,304.9419,304.942,306.9416,practice2,j,0,0,8,8,22,1,0,top_right,neutral,no_target,1.449,,,,,,,,,,,,,,,,,
,,,,,966677,f,y,r,n,11,0,2025-04-05_10h37.26.105,VisualSearchFaces,2024.2.4,Win32,59.88023952,,,,,,,,307.9431,308.0417,308.0418,310.0417,practice2,j,1,0,9,9,15,1,1,centre,threatening,neutral,0.8008,,,,,,,,,,,,,,,,,
,,,,,966677,f,y,r,n,11,0,2025-04-05_10h37.26.105,VisualSearchFaces,2024.2.4,Win32,59.88023952,,,,,,,,311.0432,311.1584,311.1584,313.1582,practice2,j,1,0,10,10,18,1,1,bottom_left,threatening,neutral,0.9339,,,,,,,,,,,,,,,,,
,,,,,966677,f,y,r,n,11,0,2025-04-05_10h37.26.105,VisualSearchFaces,2024.2.4,Win32,59.88023952,,,,,,,,314.1598,314.2583,314.2583,316.2578,practice2,f,1,0,11,11,32,1,0,top_right,friendly,no_target,0.9498,,,,,,,,,,,,,,,,,
,,,,,966677,f,y,r,n,11,0,2025-04-05_10h37.26.105,VisualSearchFaces,2024.2.4,Win32,59.88023952,,,,,,,,317.2595,317.3581,317.3582,319.3581,practice2,j,0,0,12,12,36,1,0,top_left,threatening,no_target,1.8007,,,,,,,,,,,,,,,,,
,,,,,966677,f,y,r,n,11,0,2025-04-05_10h37.26.105,VisualSearchFaces,2024.2.4,Win32,59.88023952,,,,,,,,320.3598,320.4747,320.4747,322.4739,practice2,j,1,0,13,13,9,1,1,bottom_right,neutral,threatening,0.734,,,,,,,,,,,,,,,,,
,,,,,966677,f,y,r,n,11,0,2025-04-05_10h37.26.105,VisualSearchFaces,2024.2.4,Win32,59.88023952,,,,,,,,323.4761,323.5912,323.5914,325.5913,practice2,f,1,0,14,14,21,1,0,top_left,neutral,no_target,0.7169,,,,,,,,,,,,,,,,,
,,,,,966677,f,y,r,n,11,0,2025-04-05_10h37.26.105,VisualSearchFaces,2024.2.4,Win32,59.88023952,,,,,,,,326.5929,326.7078,326.7078,328.708,practice2,f,1,0,15,15,30,1,0,centre,friendly,no_target,1.568,,,,,,,,,,,,,,,,,
,,,,,966677,f,y,r,n,11,0,2025-04-05_10h37.26.105,VisualSearchFaces,2024.2.4,Win32,59.88023952,,,,,,,,329.7094,329.8241,329.8242,331.8246,practice2,j,1,0,16,16,6,1,1,top_left,neutral,threatening,0.7517,,,,,,,,,,,,,,,,,
,,,,,966677,f,y,r,n,11,0,2025-04-05_10h37.26.105,VisualSearchFaces,2024.2.4,Win32,59.88023952,,,,,,,,332.8261,332.9416,332.9416,334.9412,practice2,f,1,0,17,17,29,1,0,bottom_right,neutral,no_target,0.8004,,,,,,,,,,,,,,,,,
,,,,,966677,f,y,r,n,11,0,2025-04-05_10h37.26.105,VisualSearchFaces,2024.2.4,Win32,59.88023952,,,,,,,,335.9336,336.0412,336.0413,338.0413,practice2,j,1,0,18,18,2,1,1,top_right,neutral,friendly,0.6672,,,,,,,,,,,,,,,,,
,,,,,966677,f,y,r,n,11,0,2025-04-05_10h37.26.105,VisualSearchFaces,2024.2.4,Win32,59.88023952,,,,,,,,339.0427,339.1578,339.1579,341.1577,practice2,f,1,0,19,19,39,1,0,bottom_right,threatening,no_target,1.0671,,,,,,,,,,,,,,,,,
,,,,,966677,f,y,r,n,11,0,2025-04-05_10h37.26.105,VisualSearchFaces,2024.2.4,Win32,59.88023952,,,,,,,,342.1587,342.2577,342.2577,344.2577,practice2,j,1,0,20,20,4,1,1,bottom_right,neutral,friendly,0.6165,,,,,,,,,,,,,,,,,
,,,,,966677,f,y,r,n,11,0,2025-04-05_10h37.26.105,VisualSearchFaces,2024.2.4,Win32,59.88023952,,,,,,,,345.2593,345.3745,345.3746,347.3742,practice2,f,1,0,21,21,35,1,0,centre,threatening,no_target,0.8501,,,,,,,,,,,,,,,,,
,,,,,966677,f,y,r,n,11,0,2025-04-05_10h37.26.105,VisualSearchFaces,2024.2.4,Win32,59.88023952,,,,,,,,348.3714,348.4742,348.4743,350.4743,practice2,j,1,0,22,22,19,1,1,bottom_right,threatening,neutral,0.5534,,,,,,,,,,,,,,,,,
,,,,,966677,f,y,r,n,11,0,2025-04-05_10h37.26.105,VisualSearchFaces,2024.2.4,Win32,59.88023952,,,,,,,,351.4759,351.5745,351.5746,353.574,practice2,f,0,0,23,23,13,1,1,bottom_left,friendly,neutral,0.9518,,,,,,,,,,,,,,,,,
,,,,,966677,f,y,r,n,11,0,2025-04-05_10h37.26.105,VisualSearchFaces,2024.2.4,Win32,59.88023952,,,,,,,,354.576,354.6745,354.6746,356.6741,practice2,f,1,0,24,24,38,1,0,bottom_left,threatening,no_target,0.849,,,,,,,,,,,,,,,,,
,,,,,966677,f,y,r,n,11,0,2025-04-05_10h37.26.105,VisualSearchFaces,2024.2.4,Win32,59.88023952,,,,,,,,357.6756,357.791,357.7911,359.7911,practice2,f,1,0,25,25,37,1,0,top_right,threatening,no_target,0.8369,,,,,,,,,,,,,,,,,
,,,,,966677,f,y,r,n,11,0,2025-04-05_10h37.26.105,VisualSearchFaces,2024.2.4,Win32,59.88023952,,,,,,,,360.7925,360.9077,360.9077,362.9076,practice2,f,1,0,26,26,33,1,0,bottom_left,friendly,no_target,0.9004,,,,,,,,,,,,,,,,,
,,,,,966677,f,y,r,n,11,0,2025-04-05_10h37.26.105,VisualSearchFaces,2024.2.4,Win32,59.88023952,,,,,,,,363.9089,364.0241,364.0241,366.024,practice2,j,1,0,27,27,1,1,1,top_left,neutral,friendly,0.6354,,,,,,,,,,,,,,,,,
,,,,,966677,f,y,r,n,11,0,2025-04-05_10h37.26.105,VisualSearchFaces,2024.2.4,Win32,59.88023952,,,,,,,,367.0256,367.1408,367.1408,369.1407,practice2,f,1,0,28,28,26,1,0,top_left,neutral,no_target,0.7367,,,,,,,,,,,,,,,,,
,,,,,966677,f,y,r,n,11,0,2025-04-05_10h37.26.105,VisualSearchFaces,2024.2.4,Win32,59.88023952,,,,,,,,370.1422,370.2446,370.2446,372.2407,practice2,j,1,0,29,29,14,1,1,bottom_right,friendly,neutral,0.6132,,,,,,,,,,,,,,,,,
,,,,,966677,f,y,r,n,11,0,2025-04-05_10h37.26.105,VisualSearchFaces,2024.2.4,Win32,59.88023952,,,,,,,,373.2381,373.3407,373.3408,375.3407,practice2,j,1,0,30,30,12,1,1,top_right,friendly,neutral,1.1496,,,,,,,,,,,,,,,,,
,,,,,966677,f,y,r,n,11,0,2025-04-05_10h37.26.105,VisualSearchFaces,2024.2.4,Win32,59.88023952,,,,,,,,376.342,376.4572,376.4573,378.4574,practice2,f,1,0,31,31,27,1,0,top_right,neutral,no_target,0.6502,,,,,,,,,,,,,,,,,
,,,,,966677,f,y,r,n,11,0,2025-04-05_10h37.26.105,VisualSearchFaces,2024.2.4,Win32,59.88023952,,,,,,,,379.4588,379.5573,379.5574,381.5568,practice2,j,1,0,32,32,0,1,1,centre,neutral,friendly,0.6044,,,,,,,,,,,,,,,,,
,,,,,966677,f,y,r,n,11,0,2025-04-05_10h37.26.105,VisualSearchFaces,2024.2.4,Win32,59.88023952,,,,,,,,382.5582,382.6575,382.6576,384.6572,practice2,j,1,0,33,33,17,1,1,top_right,threatening,neutral,1.0514,,,,,,,,,,,,,,,,,
,,,,,966677,f,y,r,n,11,0,2025-04-05_10h37.26.105,VisualSearchFaces,2024.2.4,Win32,59.88023952,,,,,,,,385.6589,385.7576,385.7577,387.7567,practice2,j,1,0,34,34,3,1,1,bottom_left,neutral,friendly,0.7665,,,,,,,,,,,,,,,,,
,,,,,966677,f,y,r,n,11,0,2025-04-05_10h37.26.105,VisualSearchFaces,2024.2.4,Win32,59.88023952,,,,,,,,388.7585,388.8736,388.8737,390.8738,practice2,j,1,0,35,35,8,1,1,bottom_left,neutral,threatening,0.5168,,,,,,,,,,,,,,,,,
,,,,,966677,f,y,r,n,11,0,2025-04-05_10h37.26.105,VisualSearchFaces,2024.2.4,Win32,59.88023952,,,,,,,,391.8751,391.9903,391.9903,393.9902,practice2,f,1,0,36,36,23,1,0,bottom_left,neutral,no_target,0.5511,,,,,,,,,,,,,,,,,
,,,,,966677,f,y,r,n,11,0,2025-04-05_10h37.26.105,VisualSearchFaces,2024.2.4,Win32,59.88023952,,,,,,,,394.9913,395.0904,395.0905,397.0904,practice2,f,1,0,37,37,28,1,0,bottom_left,neutral,no_target,0.95,,,,,,,,,,,,,,,,,
,,,,,966677,f,y,r,n,11,0,2025-04-05_10h37.26.105,VisualSearchFaces,2024.2.4,Win32,59.88023952,,,,,,,,398.0916,398.2069,398.2069,400.2063,practice2,f,1,0,38,38,20,1,0,centre,neutral,no_target,0.4999,,,,,,,,,,,,,,,,,
,,,,,966677,f,y,r,n,11,0,2025-04-05_10h37.26.105,VisualSearchFaces,2024.2.4,Win32,59.88023952,,,,,,,,401.2085,401.3228,401.3228,403.3235,practice2,j,1,0,39,39,7,1,1,top_right,neutral,threatening,0.5724,,,,,,,,,,,,,,,,,
,,,,,966677,f,y,r,n,11,0,2025-04-05_10h37.26.105,VisualSearchFaces,2024.2.4,Win32,59.88023952,,,484.0755,495.0051,space,10.9024,,496.0196,496.1224,496.1225,498.1222,block1,j,1,0,0,0,4,1,1,bottom_right,neutral,friendly,0.7003,,403.3263,484.0723,space,80.7156,,,,,,,,,,,,
,,,,,966677,f,y,r,n,11,0,2025-04-05_10h37.26.105,VisualSearchFaces,2024.2.4,Win32,59.88023952,,,,,,,,499.1235,499.2225,499.2225,501.2222,block1,j,1,0,1,1,2,1,1,top_right,neutral,friendly,0.5999,,,,,,,,,,,,,,,,,
,,,,,966677,f,y,r,n,11,0,2025-04-05_10h37.26.105,VisualSearchFaces,2024.2.4,Win32,59.88023952,,,,,,,,502.2236,502.3389,502.339,504.3387,block1,j,1,0,2,2,7,1,1,top_right,neutral,threatening,0.5008,,,,,,,,,,,,,,,,,
,,,,,966677,f,y,r,n,11,0,2025-04-05_10h37.26.105,VisualSearchFaces,2024.2.4,Win32,59.88023952,,,,,,,,505.3403,505.4439,505.444,507.4385,block1,j,1,0,3,3,14,1,1,bottom_right,friendly,neutral,0.7972,,,,,,,,,,,,,,,,,
,,,,,966677,f,y,r,n,11,0,2025-04-05_10h37.26.105,VisualSearchFaces,2024.2.4,Win32,59.88023952,,,,,,,,508.4398,508.5389,508.539,510.5381,block1,f,1,0,4,4,35,1,0,centre,threatening,no_target,0.6831,,,,,,,,,,,,,,,,,
,,,,,966677,f,y,r,n,11,0,2025-04-05_10h37.26.105,VisualSearchFaces,2024.2.4,Win32,59.88023952,,,,,,,,511.541,511.6555,511.6555,513.6548,block1,f,1,0,5,5,33,1,0,bottom_left,friendly,no_target,0.6845,,,,,,,,,,,,,,,,,
,,,,,966677,f,y,r,n,11,0,2025-04-05_10h37.26.105,VisualSearchFaces,2024.2.4,Win32,59.88023952,,,,,,,,514.6566,514.7721,514.7722,516.7722,block1,f,1,0,6,6,31,1,0,top_left,friendly,no_target,0.5173,,,,,,,,,,,,,,,,,
,,,,,966677,f,y,r,n,11,0,2025-04-05_10h37.26.105,VisualSearchFaces,2024.2.4,Win32,59.88023952,,,,,,,,517.7735,517.8884,517.8885,519.8887,block1,j,1,0,7,7,12,1,1,top_right,friendly,neutral,0.5845,,,,,,,,,,,,,,,,,
,,,,,966677,f,y,r,n,11,0,2025-04-05_10h37.26.105,VisualSearchFaces,2024.2.4,Win32,59.88023952,,,,,,,,520.8895,520.9887,520.9888,522.9885,block1,j,1,0,8,8,0,1,1,centre,neutral,friendly,0.633,,,,,,,,,,,,,,,,,
,,,,,966677,f,y,r,n,11,0,2025-04-05_10h37.26.105,VisualSearchFaces,2024.2.4,Win32,59.88023952,,,,,,,,523.9901,524.1053,524.1054,526.1052,block1,j,1,0,9,9,13,1,1,bottom_left,friendly,neutral,0.6168,,,,,,,,,,,,,,,,,
,,,,,966677,f,y,r,n,11,0,2025-04-05_10h37.26.105,VisualSearchFaces,2024.2.4,Win32,59.88023952,,,,,,,,527.1065,527.2053,527.2054,529.2054,block1,f,1,0,10,10,25,1,0,centre,neutral,no_target,0.5493,,,,,,,,,,,,,,,,,
,,,,,966677,f,y,r,n,11,0,2025-04-05_10h37.26.105,VisualSearchFaces,2024.2.4,Win32,59.88023952,,,,,,,,530.2068,530.3055,530.3056,532.3052,block1,f,1,0,11,11,21,1,0,top_left,neutral,no_target,0.3833,,,,,,,,,,,,,,,,,
,,,,,966677,f,y,r,n,11,0,2025-04-05_10h37.26.105,VisualSearchFaces,2024.2.4,Win32,59.88023952,,,,,,,,533.3067,533.4218,533.4218,535.4216,block1,f,1,0,12,12,38,1,0,bottom_left,threatening,no_target,0.5498,,,,,,,,,,,,,,,,,
,,,,,966677,f,y,r,n,11,0,2025-04-05_10h37.26.105,VisualSearchFaces,2024.2.4,Win32,59.88023952,,,,,,,,536.4233,536.5384,536.5385,538.5382,block1,j,1,0,13,13,16,1,1,top_left,threatening,neutral,0.5168,,,,,,,,,,,,,,,,,
,,,,,966677,f,y,r,n,11,0,2025-04-05_10h37.26.105,VisualSearchFaces,2024.2.4,Win32,59.88023952,,,,,,,,539.5394,539.6381,539.6381,541.6383,block1,f,1,0,14,14,29,1,0,bottom_right,neutral,no_target,0.5014,,,,,,,,,,,,,,,,,
,,,,,966677,f,y,r,n,11,0,2025-04-05_10h37.26.105,VisualSearchFaces,2024.2.4,Win32,59.88023952,,,,,,,,542.6397,542.7405,542.7405,544.7384,block1,f,1,0,15,15,36,1,0,top_left,threatening,no_target,0.6339,,,,,,,,,,,,,,,,,
,,,,,966677,f,y,r,n,11,0,2025-04-05_10h37.26.105,VisualSearchFaces,2024.2.4,Win32,59.88023952,,,,,,,,545.7394,545.8548,545.8548,547.855,block1,j,1,0,16,16,5,1,1,centre,neutral,threatening,0.4503,,,,,,,,,,,,,,,,,
,,,,,966677,f,y,r,n,11,0,2025-04-05_10h37.26.105,VisualSearchFaces,2024.2.4,Win32,59.88023952,,,,,,,,548.8563,548.9716,548.9718,550.9712,block1,f,1,0,17,17,37,1,0,top_right,threatening,no_target,0.6191,,,,,,,,,,,,,,,,,
,,,,,966677,f,y,r,n,11,0,2025-04-05_10h37.26.105,VisualSearchFaces,2024.2.4,Win32,59.88023952,,,,,,,,551.9731,552.0758,552.0758,554.0715,block1,j,1,0,18,18,19,1,1,bottom_right,threatening,neutral,0.4807,,,,,,,,,,,,,,,,,
,,,,,966677,f,y,r,n,11,0,2025-04-05_10h37.26.105,VisualSearchFaces,2024.2.4,Win32,59.88023952,,,,,,,,555.0728,555.1717,555.1717,557.171,block1,f,1,0,19,19,26,1,0,top_left,neutral,no_target,0.602,,,,,,,,,,,,,,,,,
,,,,,966677,f,y,r,n,11,0,2025-04-05_10h37.26.105,VisualSearchFaces,2024.2.4,Win32,59.88023952,,,,,,,,558.1729,558.2806,558.2806,560.2714,block1,f,1,0,20,20,34,1,0,bottom_right,friendly,no_target,0.7406,,,,,,,,,,,,,,,,,
,,,,,966677,f,y,r,n,11,0,2025-04-05_10h37.26.105,VisualSearchFaces,2024.2.4,Win32,59.88023952,,,,,,,,561.273,561.3872,561.3872,563.3873,block1,f,1,0,21,21,24,1,0,bottom_right,neutral,no_target,0.5267,,,,,,,,,,,,,,,,,
,,,,,966677,f,y,r,n,11,0,2025-04-05_10h37.26.105,VisualSearchFaces,2024.2.4,Win32,59.88023952,,,,,,,,564.3892,564.5047,564.5048,566.5041,block1,f,1,0,22,22,22,1,0,top_right,neutral,no_target,0.4996,,,,,,,,,,,,,,,,,
,,,,,966677,f,y,r,n,11,0,2025-04-05_10h37.26.105,VisualSearchFaces,2024.2.4,Win32,59.88023952,,,,,,,,567.5062,567.6214,567.6214,569.6213,block1,f,0,0,23,23,3,1,1,bottom_left,neutral,friendly,0.3826,,,,,,,,,,,,,,,,,
,,,,,966677,f,y,r,n,11,0,2025-04-05_10h37.26.105,VisualSearchFaces,2024.2.4,Win32,59.88023952,,,,,,,,570.6221,570.7332,570.7332,572.7212,block1,j,1,0,24,24,10,1,1,centre,friendly,neutral,0.5215,,,,,,,,,,,,,,,,,
,,,,,966677,f,y,r,n,11,0,2025-04-05_10h37.26.105,VisualSearchFaces,2024.2.4,Win32,59.88023952,,,,,,,,573.7228,573.8214,573.8215,575.8204,block1,j,1,0,25,25,11,1,1,top_left,friendly,neutral,0.5166,,,,,,,,,,,,,,,,,
,,,,,966677,f,y,r,n,11,0,2025-04-05_10h37.26.105,VisualSearchFaces,2024.2.4,Win32,59.88023952,,,,,,,,576.8227,576.9373,576.9375,578.9377,block1,j,1,0,26,26,9,1,1,bottom_right,neutral,threatening,0.5174,,,,,,,,,,,,,,,,,
,,,,,966677,f,y,r,n,11,0,2025-04-05_10h37.26.105,VisualSearchFaces,2024.2.4,Win32,59.88023952,,,,,,,,579.939,580.0378,580.0378,582.0378,block1,f,1,0,27,27,28,1,0,bottom_left,neutral,no_target,0.7,,,,,,,,,,,,,,,,,
,,,,,966677,f,y,r,n,11,0,2025-04-05_10h37.26.105,VisualSearchFaces,2024.2.4,Win32,59.88023952,,,,,,,,583.0391,583.1545,583.1545,585.1544,block1,f,1,0,28,28,39,1,0,bottom_right,threatening,no_target,0.8496,,,,,,,,,,,,,,,,,
,,,,,966677,f,y,r,n,11,0,2025-04-05_10h37.26.105,VisualSearchFaces,2024.2.4,Win32,59.88023952,,,,,,,,586.1563,586.271,586.2711,588.2709,block1,j,1,0,29,29,8,1,1,bottom_left,neutral,threatening,0.5507,,,,,,,,,,,,,,,,,
,,,,,966677,f,y,r,n,11,0,2025-04-05_10h37.26.105,VisualSearchFaces,2024.2.4,Win32,59.88023952,,,,,,,,589.2718,589.3708,589.3709,591.371,block1,j,1,0,30,30,1,1,1,top_left,neutral,friendly,0.6171,,,,,,,,,,,,,,,,,
,,,,,966677,f,y,r,n,11,0,2025-04-05_10h37.26.105,VisualSearchFaces,2024.2.4,Win32,59.88023952,,,,,,,,592.3727,592.4876,592.4877,594.4869,block1,f,1,0,31,31,32,1,0,top_right,friendly,no_target,0.6338,,,,,,,,,,,,,,,,,
,,,,,966677,f,y,r,n,11,0,2025-04-05_10h37.26.105,VisualSearchFaces,2024.2.4,Win32,59.88023952,,,,,,,,595.489,595.6044,595.6045,597.6043,block1,j,1,0,32,32,18,1,1,bottom_left,threatening,neutral,0.687,,,,,,,,,,,,,,,,,
,,,,,966677,f,y,r,n,11,0,2025-04-05_10h37.26.105,VisualSearchFaces,2024.2.4,Win32,59.88023952,,,,,,,,598.6054,598.7205,598.7205,600.7208,block1,j,1,0,33,33,15,1,1,centre,threatening,neutral,0.9009,,,,,,,,,,,,,,,,,
,,,,,966677,f,y,r,n,11,0,2025-04-05_10h37.26.105,VisualSearchFaces,2024.2.4,Win32,59.88023952,,,,,,,,601.7223,601.8329,601.8329,603.8207,block1,f,1,0,34,34,30,1,0,centre,friendly,no_target,0.8248,,,,,,,,,,,,,,,,,
,,,,,966677,f,y,r,n,11,0,2025-04-05_10h37.26.105,VisualSearchFaces,2024.2.4,Win32,59.88023952,,,,,,,,604.8226,604.9377,604.9377,606.9374,block1,j,1,0,35,35,17,1,1,top_right,threatening,neutral,0.6331,,,,,,,,,,,,,,,,,
,,,,,966677,f,y,r,n,11,0,2025-04-05_10h37.26.105,VisualSearchFaces,2024.2.4,Win32,59.88023952,,,,,,,,607.9394,608.0541,608.0542,610.0537,block1,j,1,0,36,36,6,1,1,top_left,neutral,threatening,0.7175,,,,,,,,,,,,,,,,,
,,,,,966677,f,y,r,n,11,0,2025-04-05_10h37.26.105,VisualSearchFaces,2024.2.4,Win32,59.88023952,,,,,,,,611.0553,611.1539,611.154,613.1543,block1,f,1,0,37,37,27,1,0,top_right,neutral,no_target,0.5176,,,,,,,,,,,,,,,,,
,,,,,966677,f,y,r,n,11,0,2025-04-05_10h37.26.105,VisualSearchFaces,2024.2.4,Win32,59.88023952,,,,,,,,614.1555,614.2708,614.2708,616.2706,block1,f,1,0,38,38,23,1,0,bottom_left,neutral,no_target,0.501,,,,,,,,,,,,,,,,,
,,,,,966677,f,y,r,n,11,0,2025-04-05_10h37.26.105,VisualSearchFaces,2024.2.4,Win32,59.88023952,,,,,,,,617.2718,617.3706,617.3707,619.3702,block1,f,1,0,39,39,20,1,0,centre,neutral,no_target,0.5007,,,,,,,,,,,,,,,,,
,,,,,966677,f,y,r,n,11,0,2025-04-05_10h37.26.105,VisualSearchFaces,2024.2.4,Win32,59.88023952,,,,,,,,620.372,620.4793,620.4793,622.4705,block1,j,1,1,0,40,11,1,1,top_left,friendly,neutral,0.6715,,,,,,,,,,,,,,,,,
,,,,,966677,f,y,r,n,11,0,2025-04-05_10h37.26.105,VisualSearchFaces,2024.2.4,Win32,59.88023952,,,,,,,,623.4718,623.5871,623.5871,625.5869,block1,j,1,1,1,41,17,1,1,top_right,threatening,neutral,0.6664,,,,,,,,,,,,,,,,,
,,,,,966677,f,y,r,n,11,0,2025-04-05_10h37.26.105,VisualSearchFaces,2024.2.4,Win32,59.88023952,,,,,,,,626.5885,626.7038,626.7038,628.7038,block1,j,0,1,2,42,39,1,0,bottom_right,threatening,no_target,1.2994,,,,,,,,,,,,,,,,,
,,,,,966677,f,y,r,n,11,0,2025-04-05_10h37.26.105,VisualSearchFaces,2024.2.4,Win32,59.88023952,,,,,,,,629.7051,629.8199,629.8199,631.8202,block1,f,1,1,3,43,27,1,0,top_right,neutral,no_target,0.6676,,,,,,,,,,,,,,,,,
,,,,,966677,f,y,r,n,11,0,2025-04-05_10h37.26.105,VisualSearchFaces,2024.2.4,Win32,59.88023952,,,,,,,,632.8216,632.9373,632.9374,634.9371,block1,j,1,1,4,44,12,1,1,top_right,friendly,neutral,0.6665,,,,,,,,,,,,,,,,,
,,,,,966677,f,y,r,n,11,0,2025-04-05_10h37.26.105,VisualSearchFaces,2024.2.4,Win32,59.88023952,,,,,,,,635.9381,636.0538,636.0538,638.0534,block1,f,1,1,5,45,38,1,0,bottom_left,threatening,no_target,1.1375,,,,,,,,,,,,,,,,,
,,,,,966677,f,y,r,n,11,0,2025-04-05_10h37.26.105,VisualSearchFaces,2024.2.4,Win32,59.88023952,,,,,,,,639.0551,639.1705,639.1705,641.17,block1,j,1,1,6,46,0,1,1,centre,neutral,friendly,0.4673,,,,,,,,,,,,,,,,,
,,,,,966677,f,y,r,n,11,0,2025-04-05_10h37.26.105,VisualSearchFaces,2024.2.4,Win32,59.88023952,,,,,,,,642.1717,642.2704,642.2705,644.2703,block1,j,1,1,7,47,18,1,1,bottom_left,threatening,neutral,0.6836,,,,,,,,,,,,,,,,,
,,,,,966677,f,y,r,n,11,0,2025-04-05_10h37.26.105,VisualSearchFaces,2024.2.4,Win32,59.88023952,,,,,,,,645.2723,645.3826,645.3827,647.3868,block1,j,1,1,8,48,8,1,1,bottom_left,neutral,threatening,0.4872,,,,,,,,,,,,,,,,,
,,,,,966677,f,y,r,n,11,0,2025-04-05_10h37.26.105,VisualSearchFaces,2024.2.4,Win32,59.88023952,,,,,,,,648.3885,648.5035,648.5036,650.5035,block1,j,1,1,9,49,19,1,1,bottom_right,threatening,neutral,0.5163,,,,,,,,,,,,,,,,,
,,,,,966677,f,y,r,n,11,0,2025-04-05_10h37.26.105,VisualSearchFaces,2024.2.4,Win32,59.88023952,,,,,,,,651.5049,651.6201,651.6202,653.6198,block1,f,1,1,10,50,35,1,0,centre,threatening,no_target,0.6172,,,,,,,,,,,,,,,,,
,,,,,966677,f,y,r,n,11,0,2025-04-05_10h37.26.105,VisualSearchFaces,2024.2.4,Win32,59.88023952,,,,,,,,654.6215,654.7363,654.7363,656.7368,block1,j,1,1,11,51,9,1,1,bottom_right,neutral,threatening,0.4887,,,,,,,,,,,,,,,,,
,,,,,966677,f,y,r,n,11,0,2025-04-05_10h37.26.105,VisualSearchFaces,2024.2.4,Win32,59.88023952,,,,,,,,657.7382,657.8444,657.8445,659.8366,block1,f,1,1,12,52,37,1,0,top_right,threatening,no_target,0.7254,,,,,,,,,,,,,,,,,
,,,,,966677,f,y,r,n,11,0,2025-04-05_10h37.26.105,VisualSearchFaces,2024.2.4,Win32,59.88023952,,,,,,,,660.8385,660.9468,660.9469,662.9364,block1,f,1,1,13,53,21,1,0,top_left,neutral,no_target,0.6019,,,,,,,,,,,,,,,,,
,,,,,966677,f,y,r,n,11,0,2025-04-05_10h37.26.105,VisualSearchFaces,2024.2.4,Win32,59.88023952,,,,,,,,663.9377,664.0373,664.0373,666.0361,block1,j,1,1,14,54,6,1,1,top_left,neutral,threatening,0.3329,,,,,,,,,,,,,,,,,
,,,,,966677,f,y,r,n,11,0,2025-04-05_10h37.26.105,VisualSearchFaces,2024.2.4,Win32,59.88023952,,,,,,,,667.0375,667.1491,667.1491,669.153,block1,f,1,1,15,55,36,1,0,top_left,threatening,no_target,0.5707,,,,,,,,,,,,,,,,,
,,,,,966677,f,y,r,n,11,0,2025-04-05_10h37.26.105,VisualSearchFaces,2024.2.4,Win32,59.88023952,,,,,,,,670.1545,670.2693,670.2693,672.2692,block1,f,1,1,16,56,26,1,0,top_left,neutral,no_target,0.7055,,,,,,,,,,,,,,,,,
,,,,,966677,f,y,r,n,11,0,2025-04-05_10h37.26.105,VisualSearchFaces,2024.2.4,Win32,59.88023952,,,,,,,,673.2713,673.3858,673.3859,675.3864,block1,f,1,1,17,57,29,1,0,bottom_right,neutral,no_target,0.6678,,,,,,,,,,,,,,,,,
,,,,,966677,f,y,r,n,11,0,2025-04-05_10h37.26.105,VisualSearchFaces,2024.2.4,Win32,59.88023952,,,,,,,,676.3877,676.5033,676.5033,678.5032,block1,j,1,1,18,58,10,1,1,centre,friendly,neutral,0.4525,,,,,,,,,,,,,,,,,
,,,,,966677,f,y,r,n,11,0,2025-04-05_10h37.26.105,VisualSearchFaces,2024.2.4,Win32,59.88023952,,,,,,,,679.5045,679.6198,679.6199,681.6194,block1,f,1,1,19,59,22,1,0,top_right,neutral,no_target,0.5341,,,,,,,,,,,,,,,,,
,,,,,966677,f,y,r,n,11,0,2025-04-05_10h37.26.105,VisualSearchFaces,2024.2.4,Win32,59.88023952,,,,,,,,682.6209,682.736,682.7361,684.7362,block1,f,1,1,20,60,24,1,0,bottom_right,neutral,no_target,0.5175,,,,,,,,,,,,,,,,,
,,,,,966677,f,y,r,n,11,0,2025-04-05_10h37.26.105,VisualSearchFaces,2024.2.4,Win32,59.88023952,,,,,,,,685.7377,685.849,685.849,687.8409,block1,f,1,1,21,61,32,1,0,top_right,friendly,no_target,0.6557,,,,,,,,,,,,,,,,,
,,,,,966677,f,y,r,n,11,0,2025-04-05_10h37.26.105,VisualSearchFaces,2024.2.4,Win32,59.88023952,,,,,,,,688.8543,688.9691,688.9692,690.9695,block1,j,0,1,22,62,25,1,0,centre,neutral,no_target,0.4678,,,,,,,,,,,,,,,,,
,,,,,966677,f,y,r,n,11,0,2025-04-05_10h37.26.105,VisualSearchFaces,2024.2.4,Win32,59.88023952,,,,,,,,691.9715,692.0864,692.0864,694.0863,block1,j,1,1,23,63,3,1,1,bottom_left,neutral,friendly,0.6167,,,,,,,,,,,,,,,,,
,,,,,966677,f,y,r,n,11,0,2025-04-05_10h37.26.105,VisualSearchFaces,2024.2.4,Win32,59.88023952,,,,,,,,695.0876,695.2028,695.2029,697.2028,block1,f,1,1,24,64,28,1,0,bottom_left,neutral,no_target,0.6001,,,,,,,,,,,,,,,,,
,,,,,966677,f,y,r,n,11,0,2025-04-05_10h37.26.105,VisualSearchFaces,2024.2.4,Win32,59.88023952,,,,,,,,698.204,698.3194,698.3194,700.3193,block1,j,1,1,25,65,14,1,1,bottom_right,friendly,neutral,0.6337,,,,,,,,,,,,,,,,,
,,,,,966677,f,y,r,n,11,0,2025-04-05_10h37.26.105,VisualSearchFaces,2024.2.4,Win32,59.88023952,,,,,,,,701.321,701.4359,701.436,703.4362,block1,f,1,1,26,66,20,1,0,centre,neutral,no_target,0.662,,,,,,,,,,,,,,,,,
,,,,,966677,f,y,r,n,11,0,2025-04-05_10h37.26.105,VisualSearchFaces,2024.2.4,Win32,59.88023952,,,,,,,,704.4374,704.5526,704.5527,706.5527,block1,f,1,1,27,67,30,1,0,centre,friendly,no_target,0.7668,,,,,,,,,,,,,,,,,
,,,,,966677,f,y,r,n,11,0,2025-04-05_10h37.26.105,VisualSearchFaces,2024.2.4,Win32,59.88023952,,,,,,,,707.5548,707.6692,707.6692,709.6689,block1,f,1,1,28,68,31,1,0,top_left,friendly,no_target,0.5671,,,,,,,,,,,,,,,,,
,,,,,966677,f,y,r,n,11,0,2025-04-05_10h37.26.105,VisualSearchFaces,2024.2.4,Win32,59.88023952,,,,,,,,710.6706,710.7861,710.7862,712.7858,block1,f,1,1,29,69,23,1,0,bottom_left,neutral,no_target,0.6671,,,,,,,,,,,,,,,,,
,,,,,966677,f,y,r,n,11,0,2025-04-05_10h37.26.105,VisualSearchFaces,2024.2.4,Win32,59.88023952,,,,,,,,713.7873,713.9026,713.9026,715.9025,block1,j,1,1,30,70,1,1,1,top_left,neutral,friendly,0.5665,,,,,,,,,,,,,,,,,
,,,,,966677,f,y,r,n,11,0,2025-04-05_10h37.26.105,VisualSearchFaces,2024.2.4,Win32,59.88023952,,,,,,,,716.9035,717.0022,717.0025,719.0024,block1,j,1,1,31,71,15,1,1,centre,threatening,neutral,0.6013,,,,,,,,,,,,,,,,,
,,,,,966677,f,y,r,n,11,0,2025-04-05_10h37.26.105,VisualSearchFaces,2024.2.4,Win32,59.88023952,,,,,,,,720.0041,720.1193,720.1193,722.1191,block1,j,1,1,32,72,5,1,1,centre,neutral,threatening,0.5342,,,,,,,,,,,,,,,,,
,,,,,966677,f,y,r,n,11,0,2025-04-05_10h37.26.105,VisualSearchFaces,2024.2.4,Win32,59.88023952,,,,,,,,723.1214,723.236,723.236,725.2358,block1,j,1,1,33,73,4,1,1,bottom_right,neutral,friendly,0.4498,,,,,,,,,,,,,,,,,
,,,,,966677,f,y,r,n,11,0,2025-04-05_10h37.26.105,VisualSearchFaces,2024.2.4,Win32,59.88023952,,,,,,,,726.2371,726.3523,726.3523,728.3524,block1,f,1,1,34,74,33,1,0,bottom_left,friendly,no_target,1.1335,,,,,,,,,,,,,,,,,
,,,,,966677,f,y,r,n,11,0,2025-04-05_10h37.26.105,VisualSearchFaces,2024.2.4,Win32,59.88023952,,,,,,,,729.3537,729.4689,729.4689,731.469,block1,j,1,1,35,75,2,1,1,top_right,neutral,friendly,0.5016,,,,,,,,,,,,,,,,,
,,,,,966677,f,y,r,n,11,0,2025-04-05_10h37.26.105,VisualSearchFaces,2024.2.4,Win32,59.88023952,,,,,,,,732.4704,732.5858,732.5859,734.5853,block1,j,1,1,36,76,16,1,1,top_left,threatening,neutral,0.7498,,,,,,,,,,,,,,,,,
,,,,,966677,f,y,r,n,11,0,2025-04-05_10h37.26.105,VisualSearchFaces,2024.2.4,Win32,59.88023952,,,,,,,,735.5873,735.7023,735.7023,737.7022,block1,f,1,1,37,77,34,1,0,bottom_right,friendly,no_target,0.9329,,,,,,,,,,,,,,,,,
,,,,,966677,f,y,r,n,11,0,2025-04-05_10h37.26.105,VisualSearchFaces,2024.2.4,Win32,59.88023952,,,,,,,,738.7035,738.8191,738.8191,740.819,block1,j,1,1,38,78,13,1,1,bottom_left,friendly,neutral,0.5332,,,,,,,,,,,,,,,,,
,,,,,966677,f,y,r,n,11,0,2025-04-05_10h37.26.105,VisualSearchFaces,2024.2.4,Win32,59.88023952,,,,,,,,741.8202,741.9274,741.9274,743.919,block1,j,1,1,39,79,7,1,1,top_right,neutral,threatening,0.6245,,,,,,,,,,,,,,,,,
,,,,,966677,f,y,r,n,11,0,2025-04-05_10h37.26.105,VisualSearchFaces,2024.2.4,Win32,59.88023952,,,818.8544,827.4846,space,8.6003,,828.4859,828.6005,828.6005,830.601,block2,j,1,0,0,0,6,1,1,top_left,neutral,threatening,0.6507,,743.921,818.8513,space,74.9005,,,,,,,,,,,,
,,,,,966677,f,y,r,n,11,0,2025-04-05_10h37.26.105,VisualSearchFaces,2024.2.4,Win32,59.88023952,,,,,,,,831.6024,831.7177,831.7177,833.7174,block2,j,1,0,1,1,4,1,1,bottom_right,neutral,friendly,0.5169,,,,,,,,,,,,,,,,,
,,,,,966677,f,y,r,n,11,0,2025-04-05_10h37.26.105,VisualSearchFaces,2024.2.4,Win32,59.88023952,,,,,,,,834.7147,834.8172,834.8173,836.8172,block2,j,1,0,2,2,8,1,1,bottom_left,neutral,threatening,0.3799,,,,,,,,,,,,,,,,,
,,,,,966677,f,y,r,n,11,0,2025-04-05_10h37.26.105,VisualSearchFaces,2024.2.4,Win32,59.88023952,,,,,,,,837.8184,837.9185,837.9186,839.9171,block2,j,1,0,3,3,11,1,1,top_left,friendly,neutral,0.5988,,,,,,,,,,,,,,,,,
,,,,,966677,f,y,r,n,11,0,2025-04-05_10h37.26.105,VisualSearchFaces,2024.2.4,Win32,59.88023952,,,,,,,,840.919,841.0203,841.0203,843.0175,block2,f,1,0,4,4,24,1,0,bottom_right,neutral,no_target,0.5816,,,,,,,,,,,,,,,,,
,,,,,966677,f,y,r,n,11,0,2025-04-05_10h37.26.105,VisualSearchFaces,2024.2.4,Win32,59.88023952,,,,,,,,844.0189,844.1343,844.1343,846.1341,block2,f,1,0,5,5,35,1,0,centre,threatening,no_target,0.584,,,,,,,,,,,,,,,,,
,,,,,966677,f,y,r,n,11,0,2025-04-05_10h37.26.105,VisualSearchFaces,2024.2.4,Win32,59.88023952,,,,,,,,847.1354,847.2501,847.2502,849.2508,block2,f,1,0,6,6,23,1,0,bottom_left,neutral,no_target,0.6019,,,,,,,,,,,,,,,,,
,,,,,966677,f,y,r,n,11,0,2025-04-05_10h37.26.105,VisualSearchFaces,2024.2.4,Win32,59.88023952,,,,,,,,850.2519,850.3669,850.3669,852.3675,block2,f,1,0,7,7,32,1,0,top_right,friendly,no_target,0.8515,,,,,,,,,,,,,,,,,
,,,,,966677,f,y,r,n,11,0,2025-04-05_10h37.26.105,VisualSearchFaces,2024.2.4,Win32,59.88023952,,,,,,,,853.3691,853.4838,853.4839,855.4839,block2,j,1,0,8,8,9,1,1,bottom_right,neutral,threatening,0.4845,,,,,,,,,,,,,,,,,
,,,,,966677,f,y,r,n,11,0,2025-04-05_10h37.26.105,VisualSearchFaces,2024.2.4,Win32,59.88023952,,,,,,,,856.4851,856.5839,856.584,858.5839,block2,j,1,0,9,9,7,1,1,top_right,neutral,threatening,0.4002,,,,,,,,,,,,,,,,,
,,,,,966677,f,y,r,n,11,0,2025-04-05_10h37.26.105,VisualSearchFaces,2024.2.4,Win32,59.88023952,,,,,,,,859.5853,859.684,859.6841,861.6834,block2,j,1,0,10,10,10,1,1,centre,friendly,neutral,0.6338,,,,,,,,,,,,,,,,,
,,,,,966677,f,y,r,n,11,0,2025-04-05_10h37.26.105,VisualSearchFaces,2024.2.4,Win32,59.88023952,,,,,,,,862.6854,862.8006,862.8007,864.8005,block2,f,1,0,11,11,38,1,0,bottom_left,threatening,no_target,0.6004,,,,,,,,,,,,,,,,,
,,,,,966677,f,y,r,n,11,0,2025-04-05_10h37.26.105,VisualSearchFaces,2024.2.4,Win32,59.88023952,,,,,,,,865.8018,865.9166,865.9167,867.917,block2,f,1,0,12,12,20,1,0,centre,neutral,no_target,0.5369,,,,,,,,,,,,,,,,,
,,,,,966677,f,y,r,n,11,0,2025-04-05_10h37.26.105,VisualSearchFaces,2024.2.4,Win32,59.88023952,,,,,,,,868.9186,869.0339,869.0339,871.0338,block2,f,1,0,13,13,29,1,0,bottom_right,neutral,no_target,0.5165,,,,,,,,,,,,,,,,,
,,,,,966677,f,y,r,n,11,0,2025-04-05_10h37.26.105,VisualSearchFaces,2024.2.4,Win32,59.88023952,,,,,,,,872.035,872.1338,872.1338,874.1339,block2,j,1,0,14,14,16,1,1,top_left,threatening,neutral,0.5049,,,,,,,,,,,,,,,,,
,,,,,966677,f,y,r,n,11,0,2025-04-05_10h37.26.105,VisualSearchFaces,2024.2.4,Win32,59.88023952,,,,,,,,875.1349,875.2337,875.2338,877.2336,block2,f,1,0,15,15,31,1,0,top_left,friendly,no_target,1.1251,,,,,,,,,,,,,,,,,
,,,,,966677,f,y,r,n,11,0,2025-04-05_10h37.26.105,VisualSearchFaces,2024.2.4,Win32,59.88023952,,,,,,,,878.2348,878.3337,878.3337,880.3335,block2,f,1,0,16,16,37,1,0,top_right,threatening,no_target,0.9831,,,,,,,,,,,,,,,,,
,,,,,966677,f,y,r,n,11,0,2025-04-05_10h37.26.105,VisualSearchFaces,2024.2.4,Win32,59.88023952,,,,,,,,881.3352,881.4502,881.4503,883.4502,block2,f,1,0,17,17,39,1,0,bottom_right,threatening,no_target,0.6123,,,,,,,,,,,,,,,,,
,,,,,966677,f,y,r,n,11,0,2025-04-05_10h37.26.105,VisualSearchFaces,2024.2.4,Win32,59.88023952,,,,,,,,884.4514,884.5625,884.5625,886.5669,block2,j,1,0,18,18,17,1,1,top_right,threatening,neutral,0.4941,,,,,,,,,,,,,,,,,
,,,,,966677,f,y,r,n,11,0,2025-04-05_10h37.26.105,VisualSearchFaces,2024.2.4,Win32,59.88023952,,,,,,,,887.5688,887.6836,887.6837,889.683,block2,j,1,0,19,19,18,1,1,bottom_left,threatening,neutral,0.7832,,,,,,,,,,,,,,,,,
,,,,,966677,f,y,r,n,11,0,2025-04-05_10h37.26.105,VisualSearchFaces,2024.2.4,Win32,59.88023952,,,,,,,,890.6848,890.8002,890.8002,892.8003,block2,f,1,0,20,20,28,1,0,bottom_left,neutral,no_target,0.6005,,,,,,,,,,,,,,,,,
,,,,,966677,f,y,r,n,11,0,2025-04-05_10h37.26.105,VisualSearchFaces,2024.2.4,Win32,59.88023952,,,,,,,,893.8015,893.9169,893.917,895.9164,block2,j,1,0,21,21,13,1,1,bottom_left,friendly,neutral,0.633,,,,,,,,,,,,,,,,,
,,,,,966677,f,y,r,n,11,0,2025-04-05_10h37.26.105,VisualSearchFaces,2024.2.4,Win32,59.88023952,,,,,,,,896.9176,897.0333,897.0333,899.0334,block2,j,1,0,22,22,0,1,1,centre,neutral,friendly,0.7001,,,,,,,,,,,,,,,,,
,,,,,966677,f,y,r,n,11,0,2025-04-05_10h37.26.105,VisualSearchFaces,2024.2.4,Win32,59.88023952,,,,,,,,900.0347,900.1502,900.1502,902.1464,block2,f,1,0,23,23,27,1,0,top_right,neutral,no_target,0.4678,,,,,,,,,,,,,,,,,
,,,,,966677,f,y,r,n,11,0,2025-04-05_10h37.26.105,VisualSearchFaces,2024.2.4,Win32,59.88023952,,,,,,,,903.1512,903.2795,903.2796,905.2833,block2,j,1,0,24,24,15,1,1,centre,threatening,neutral,0.4538,,,,,,,,,,,,,,,,,
,,,,,966677,f,y,r,n,11,0,2025-04-05_10h37.26.105,VisualSearchFaces,2024.2.4,Win32,59.88023952,,,,,,,,906.2848,906.4,906.4,908.3997,block2,j,1,0,25,25,19,1,1,bottom_right,threatening,neutral,0.483,,,,,,,,,,,,,,,,,
,,,,,966677,f,y,r,n,11,0,2025-04-05_10h37.26.105,VisualSearchFaces,2024.2.4,Win32,59.88023952,,,,,,,,909.4012,909.4999,909.4999,911.4993,block2,f,1,0,26,26,36,1,0,top_left,threatening,no_target,0.584,,,,,,,,,,,,,,,,,
,,,,,966677,f,y,r,n,11,0,2025-04-05_10h37.26.105,VisualSearchFaces,2024.2.4,Win32,59.88023952,,,,,,,,912.5013,912.6165,912.6165,914.6164,block2,f,1,0,27,27,21,1,0,top_left,neutral,no_target,0.4662,,,,,,,,,,,,,,,,,
,,,,,966677,f,y,r,n,11,0,2025-04-05_10h37.26.105,VisualSearchFaces,2024.2.4,Win32,59.88023952,,,,,,,,915.6178,915.7326,915.7326,917.7204,block2,f,1,0,28,28,33,1,0,bottom_left,friendly,no_target,0.6721,,,,,,,,,,,,,,,,,
,,,,,966677,f,y,r,n,11,0,2025-04-05_10h37.26.105,VisualSearchFaces,2024.2.4,Win32,59.88023952,,,,,,,,918.7346,918.8462,918.8463,920.8493,block2,f,1,0,29,29,22,1,0,top_right,neutral,no_target,0.6193,,,,,,,,,,,,,,,,,
,,,,,966677,f,y,r,n,11,0,2025-04-05_10h37.26.105,VisualSearchFaces,2024.2.4,Win32,59.88023952,,,,,,,,921.8511,921.9497,921.9497,923.9496,block2,j,1,0,30,30,3,1,1,bottom_left,neutral,friendly,0.3661,,,,,,,,,,,,,,,,,
,,,,,966677,f,y,r,n,11,0,2025-04-05_10h37.26.105,VisualSearchFaces,2024.2.4,Win32,59.88023952,,,,,,,,924.9511,925.0663,925.0664,927.0663,block2,f,1,0,31,31,26,1,0,top_left,neutral,no_target,0.3999,,,,,,,,,,,,,,,,,
,,,,,966677,f,y,r,n,11,0,2025-04-05_10h37.26.105,VisualSearchFaces,2024.2.4,Win32,59.88023952,,,,,,,,928.0675,928.1829,928.183,930.183,block2,f,1,0,32,32,30,1,0,centre,friendly,no_target,0.5833,,,,,,,,,,,,,,,,,
,,,,,966677,f,y,r,n,11,0,2025-04-05_10h37.26.105,VisualSearchFaces,2024.2.4,Win32,59.88023952,,,,,,,,931.1842,931.2997,931.2998,933.2988,block2,j,1,0,33,33,14,1,1,bottom_right,friendly,neutral,0.4683,,,,,,,,,,,,,,,,,
,,,,,966677,f,y,r,n,11,0,2025-04-05_10h37.26.105,VisualSearchFaces,2024.2.4,Win32,59.88023952,,,,,,,,934.301,934.4162,934.4162,936.4161,block2,j,1,0,34,34,1,1,1,top_left,neutral,friendly,0.6724,,,,,,,,,,,,,,,,,
,,,,,966677,f,y,r,n,11,0,2025-04-05_10h37.26.105,VisualSearchFaces,2024.2.4,Win32,59.88023952,,,,,,,,937.4174,937.5162,937.5162,939.5161,block2,j,1,0,35,35,12,1,1,top_right,friendly,neutral,0.5331,,,,,,,,,,,,,,,,,
,,,,,966677,f,y,r,n,11,0,2025-04-05_10h37.26.105,VisualSearchFaces,2024.2.4,Win32,59.88023952,,,,,,,,940.5177,940.6329,940.6329,942.6328,block2,f,1,0,36,36,25,1,0,centre,neutral,no_target,0.5174,,,,,,,,,,,,,,,,,
,,,,,966677,f,y,r,n,11,0,2025-04-05_10h37.26.105,VisualSearchFaces,2024.2.4,Win32,59.88023952,,,,,,,,943.634,943.7495,943.7495,945.7493,block2,j,1,0,37,37,2,1,1,top_right,neutral,friendly,0.4492,,,,,,,,,,,,,,,,,
,,,,,966677,f,y,r,n,11,0,2025-04-05_10h37.26.105,VisualSearchFaces,2024.2.4,Win32,59.88023952,,,,,,,,946.7507,946.8572,946.8572,948.8494,block2,f,1,0,38,38,34,1,0,bottom_right,friendly,no_target,0.6417,,,,,,,,,,,,,,,,,
,,,,,966677,f,y,r,n,11,0,2025-04-05_10h37.26.105,VisualSearchFaces,2024.2.4,Win32,59.88023952,,,,,,,,949.8507,949.966,949.9661,951.966,block2,j,1,0,39,39,5,1,1,centre,neutral,threatening,0.4351,,,,,,,,,,,,,,,,,
,,,,,966677,f,y,r,n,11,0,2025-04-05_10h37.26.105,VisualSearchFaces,2024.2.4,Win32,59.88023952,,,,,,,,952.9682,953.0828,953.0829,955.0826,block2,f,1,1,0,40,27,1,0,top_right,neutral,no_target,0.4674,,,,,,,,,,,,,,,,,
,,,,,966677,f,y,r,n,11,0,2025-04-05_10h37.26.105,VisualSearchFaces,2024.2.4,Win32,59.88023952,,,,,,,,956.0837,956.1993,956.1994,958.1989,block2,j,1,1,1,41,1,1,1,top_left,neutral,friendly,0.4327,,,,,,,,,,,,,,,,,
,,,,,966677,f,y,r,n,11,0,2025-04-05_10h37.26.105,VisualSearchFaces,2024.2.4,Win32,59.88023952,,,,,,,,959.2006,959.3159,959.3159,961.3159,block2,f,1,1,2,42,26,1,0,top_left,neutral,no_target,0.5004,,,,,,,,,,,,,,,,,
,,,,,966677,f,y,r,n,11,0,2025-04-05_10h37.26.105,VisualSearchFaces,2024.2.4,Win32,59.88023952,,,,,,,,962.3171,962.4464,962.4464,964.4489,block2,f,1,1,3,43,39,1,0,bottom_right,threatening,no_target,0.7351,,,,,,,,,,,,,,,,,
,,,,,966677,f,y,r,n,11,0,2025-04-05_10h37.26.105,VisualSearchFaces,2024.2.4,Win32,59.88023952,,,,,,,,965.4387,965.5491,965.5492,967.5489,block2,f,1,1,4,44,36,1,0,top_left,threatening,no_target,0.5346,,,,,,,,,,,,,,,,,
,,,,,966677,f,y,r,n,11,0,2025-04-05_10h37.26.105,VisualSearchFaces,2024.2.4,Win32,59.88023952,,,,,,,,968.5498,968.649,968.649,970.6484,block2,f,1,1,5,45,37,1,0,top_right,threatening,no_target,0.567,,,,,,,,,,,,,,,,,
,,,,,966677,f,y,r,n,11,0,2025-04-05_10h37.26.105,VisualSearchFaces,2024.2.4,Win32,59.88023952,,,,,,,,971.6456,971.7489,971.7489,973.7488,block2,f,1,1,6,46,28,1,0,bottom_left,neutral,no_target,0.5678,,,,,,,,,,,,,,,,,
,,,,,966677,f,y,r,n,11,0,2025-04-05_10h37.26.105,VisualSearchFaces,2024.2.4,Win32,59.88023952,,,,,,,,974.7503,974.8492,974.8492,976.8487,block2,j,1,1,7,47,16,1,1,top_left,threatening,neutral,0.5493,,,,,,,,,,,,,,,,,
,,,,,966677,f,y,r,n,11,0,2025-04-05_10h37.26.105,VisualSearchFaces,2024.2.4,Win32,59.88023952,,,,,,,,977.8505,977.9658,977.9658,979.9656,block2,j,1,1,8,48,4,1,1,bottom_right,neutral,friendly,0.5159,,,,,,,,,,,,,,,,,
,,,,,966677,f,y,r,n,11,0,2025-04-05_10h37.26.105,VisualSearchFaces,2024.2.4,Win32,59.88023952,,,,,,,,980.9669,981.0822,981.0822,983.0821,block2,j,1,1,9,49,6,1,1,top_left,neutral,threatening,0.5496,,,,,,,,,,,,,,,,,
,,,,,966677,f,y,r,n,11,0,2025-04-05_10h37.26.105,VisualSearchFaces,2024.2.4,Win32,59.88023952,,,,,,,,984.0835,984.1985,984.1986,986.1987,block2,j,1,1,10,50,18,1,1,bottom_left,threatening,neutral,0.5506,,,,,,,,,,,,,,,,,
,,,,,966677,f,y,r,n,11,0,2025-04-05_10h37.26.105,VisualSearchFaces,2024.2.4,Win32,59.88023952,,,,,,,,987.2033,987.3155,987.3155,989.3152,block2,f,1,1,11,51,23,1,0,bottom_left,neutral,no_target,0.5001,,,,,,,,,,,,,,,,,
,,,,,966677,f,y,r,n,11,0,2025-04-05_10h37.26.105,VisualSearchFaces,2024.2.4,Win32,59.88023952,,,,,,,,990.3169,990.4321,990.4322,992.432,block2,f,1,1,12,52,25,1,0,centre,neutral,no_target,0.4168,,,,,,,,,,,,,,,,,
,,,,,966677,f,y,r,n,11,0,2025-04-05_10h37.26.105,VisualSearchFaces,2024.2.4,Win32,59.88023952,,,,,,,,993.4331,993.5321,993.5322,995.532,block2,j,1,1,13,53,19,1,1,bottom_right,threatening,neutral,0.533,,,,,,,,,,,,,,,,,
,,,,,966677,f,y,r,n,11,0,2025-04-05_10h37.26.105,VisualSearchFaces,2024.2.4,Win32,59.88023952,,,,,,,,996.5334,996.6485,996.6485,998.6487,block2,f,1,1,14,54,31,1,0,top_left,friendly,no_target,0.7348,,,,,,,,,,,,,,,,,
,,,,,966677,f,y,r,n,11,0,2025-04-05_10h37.26.105,VisualSearchFaces,2024.2.4,Win32,59.88023952,,,,,,,,999.65,999.7653,999.7654,1001.7651,block2,f,1,1,15,55,20,1,0,centre,neutral,no_target,0.534,,,,,,,,,,,,,,,,,
,,,,,966677,f,y,r,n,11,0,2025-04-05_10h37.26.105,VisualSearchFaces,2024.2.4,Win32,59.88023952,,,,,,,,1002.7668,1002.8653,1002.8654,1004.8652,block2,f,1,1,16,56,32,1,0,top_right,friendly,no_target,0.8713,,,,,,,,,,,,,,,,,
,,,,,966677,f,y,r,n,11,0,2025-04-05_10h37.26.105,VisualSearchFaces,2024.2.4,Win32,59.88023952,,,,,,,,1005.8667,1005.982,1005.982,1007.9709,block2,j,1,1,17,57,2,1,1,top_right,neutral,friendly,0.4023,,,,,,,,,,,,,,,,,
,,,,,966677,f,y,r,n,11,0,2025-04-05_10h37.26.105,VisualSearchFaces,2024.2.4,Win32,59.88023952,,,,,,,,1008.9831,1009.0984,1009.0984,1011.0984,block2,j,1,1,18,58,5,1,1,centre,neutral,threatening,0.6679,,,,,,,,,,,,,,,,,
,,,,,966677,f,y,r,n,11,0,2025-04-05_10h37.26.105,VisualSearchFaces,2024.2.4,Win32,59.88023952,,,,,,,,1012.0993,1012.1985,1012.1985,1014.198,block2,j,1,1,19,59,8,1,1,bottom_left,neutral,threatening,0.5165,,,,,,,,,,,,,,,,,
,,,,,966677,f,y,r,n,11,0,2025-04-05_10h37.26.105,VisualSearchFaces,2024.2.4,Win32,59.88023952,,,,,,,,1015.1999,1015.3151,1015.3152,1017.3151,block2,f,1,1,20,60,34,1,0,bottom_right,friendly,no_target,0.5695,,,,,,,,,,,,,,,,,
,,,,,966677,f,y,r,n,11,0,2025-04-05_10h37.26.105,VisualSearchFaces,2024.2.4,Win32,59.88023952,,,,,,,,1018.3171,1018.4319,1018.4319,1020.4317,block2,j,1,1,21,61,13,1,1,bottom_left,friendly,neutral,0.5495,,,,,,,,,,,,,,,,,
,,,,,966677,f,y,r,n,11,0,2025-04-05_10h37.26.105,VisualSearchFaces,2024.2.4,Win32,59.88023952,,,,,,,,1021.4332,1021.5481,1021.5481,1023.5484,block2,f,1,1,22,62,22,1,0,top_right,neutral,no_target,0.5336,,,,,,,,,,,,,,,,,
,,,,,966677,f,y,r,n,11,0,2025-04-05_10h37.26.105,VisualSearchFaces,2024.2.4,Win32,59.88023952,,,,,,,,1024.5495,1024.6615,1024.6616,1026.6643,block2,j,1,1,23,63,10,1,1,centre,friendly,neutral,0.5207,,,,,,,,,,,,,,,,,
,,,,,966677,f,y,r,n,11,0,2025-04-05_10h37.26.105,VisualSearchFaces,2024.2.4,Win32,59.88023952,,,,,,,,1027.6666,1027.7816,1027.7817,1029.7811,block2,j,1,1,24,64,7,1,1,top_right,neutral,threatening,0.6169,,,,,,,,,,,,,,,,,
,,,,,966677,f,y,r,n,11,0,2025-04-05_10h37.26.105,VisualSearchFaces,2024.2.4,Win32,59.88023952,,,,,,,,1030.783,1030.8977,1030.8977,1032.8981,block2,f,1,1,25,65,35,1,0,centre,threatening,no_target,0.5847,,,,,,,,,,,,,,,,,
,,,,,966677,f,y,r,n,11,0,2025-04-05_10h37.26.105,VisualSearchFaces,2024.2.4,Win32,59.88023952,,,,,,,,1033.8991,1033.9982,1033.9983,1035.9978,block2,j,1,1,26,66,17,1,1,top_right,threatening,neutral,0.5363,,,,,,,,,,,,,,,,,
,,,,,966677,f,y,r,n,11,0,2025-04-05_10h37.26.105,VisualSearchFaces,2024.2.4,Win32,59.88023952,,,,,,,,1036.9994,1037.1061,1037.1062,1039.098,block2,j,1,1,27,67,15,1,1,centre,threatening,neutral,0.625,,,,,,,,,,,,,,,,,
,,,,,966677,f,y,r,n,11,0,2025-04-05_10h37.26.105,VisualSearchFaces,2024.2.4,Win32,59.88023952,,,,,,,,1040.0995,1040.2142,1040.2143,1042.2146,block2,j,1,1,28,68,9,1,1,bottom_right,neutral,threatening,0.5851,,,,,,,,,,,,,,,,,
,,,,,966677,f,y,r,n,11,0,2025-04-05_10h37.26.105,VisualSearchFaces,2024.2.4,Win32,59.88023952,,,,,,,,1043.2161,1043.3314,1043.3315,1045.3313,block2,f,1,1,29,69,38,1,0,bottom_left,threatening,no_target,0.5678,,,,,,,,,,,,,,,,,
,,,,,966677,f,y,r,n,11,0,2025-04-05_10h37.26.105,VisualSearchFaces,2024.2.4,Win32,59.88023952,,,,,,,,1046.3327,1046.4481,1046.4482,1048.4478,block2,f,1,1,30,70,21,1,0,top_left,neutral,no_target,0.6002,,,,,,,,,,,,,,,,,
,,,,,966677,f,y,r,n,11,0,2025-04-05_10h37.26.105,VisualSearchFaces,2024.2.4,Win32,59.88023952,,,,,,,,1049.4497,1049.5646,1049.5647,1051.5642,block2,f,1,1,31,71,29,1,0,bottom_right,neutral,no_target,0.4998,,,,,,,,,,,,,,,,,
,,,,,966677,f,y,r,n,11,0,2025-04-05_10h37.26.105,VisualSearchFaces,2024.2.4,Win32,59.88023952,,,,,,,,1052.5658,1052.6691,1052.6692,1054.6646,block2,j,1,1,32,72,0,1,1,centre,neutral,friendly,0.4458,,,,,,,,,,,,,,,,,
,,,,,966677,f,y,r,n,11,0,2025-04-05_10h37.26.105,VisualSearchFaces,2024.2.4,Win32,59.88023952,,,,,,,,1055.6659,1055.7812,1055.7813,1057.7812,block2,f,1,1,33,73,30,1,0,centre,friendly,no_target,0.7172,,,,,,,,,,,,,,,,,
,,,,,966677,f,y,r,n,11,0,2025-04-05_10h37.26.105,VisualSearchFaces,2024.2.4,Win32,59.88023952,,,,,,,,1058.7819,1058.8811,1058.8812,1060.8811,block2,j,1,1,34,74,14,1,1,bottom_right,friendly,neutral,0.5338,,,,,,,,,,,,,,,,,
,,,,,966677,f,y,r,n,11,0,2025-04-05_10h37.26.105,VisualSearchFaces,2024.2.4,Win32,59.88023952,,,,,,,,1061.8823,1061.9978,1061.9978,1063.9977,block2,f,1,1,35,75,33,1,0,bottom_left,friendly,no_target,0.5529,,,,,,,,,,,,,,,,,
,,,,,966677,f,y,r,n,11,0,2025-04-05_10h37.26.105,VisualSearchFaces,2024.2.4,Win32,59.88023952,,,,,,,,1064.9991,1065.1143,1065.1144,1067.1142,block2,f,1,1,36,76,24,1,0,bottom_right,neutral,no_target,0.4504,,,,,,,,,,,,,,,,,
,,,,,966677,f,y,r,n,11,0,2025-04-05_10h37.26.105,VisualSearchFaces,2024.2.4,Win32,59.88023952,,,,,,,,1068.1169,1068.2309,1068.2309,1070.2309,block2,j,1,1,37,77,3,1,1,bottom_left,neutral,friendly,0.384,,,,,,,,,,,,,,,,,
,,,,,966677,f,y,r,n,11,0,2025-04-05_10h37.26.105,VisualSearchFaces,2024.2.4,Win32,59.88023952,,,,,,,,1071.2324,1071.344,1071.3441,1073.3477,block2,j,1,1,38,78,12,1,1,top_right,friendly,neutral,0.5196,,,,,,,,,,,,,,,,,
,,,,,966677,f,y,r,n,11,0,2025-04-05_10h37.26.105,VisualSearchFaces,2024.2.4,Win32,59.88023952,,,,,,,,1074.3486,1074.4476,1074.4476,1076.4477,block2,j,1,1,39,79,11,1,1,top_left,friendly,neutral,0.5852,,,,,,,,,,,,,,,,,
,,,,,966677,f,y,r,n,11,0,2025-04-05_10h37.26.105,VisualSearchFaces,2024.2.4,Win32,59.88023952,,,1292.664,1334.0603,space,41.3715,,1335.0618,1335.1768,1335.1768,1337.1771,block3,j,1,0,0,0,12,1,1,top_right,friendly,neutral,0.6337,,1076.4495,1292.6607,space,216.1814,,,,,,,,,,,,
,,,,,966677,f,y,r,n,11,0,2025-04-05_10h37.26.105,VisualSearchFaces,2024.2.4,Win32,59.88023952,,,,,,,,1338.1785,1338.2939,1338.294,1340.2934,block3,f,1,0,1,1,35,1,0,centre,threatening,no_target,0.6382,,,,,,,,,,,,,,,,,
,,,,,966677,f,y,r,n,11,0,2025-04-05_10h37.26.105,VisualSearchFaces,2024.2.4,Win32,59.88023952,,,,,,,,1341.2953,1341.402,1341.4021,1343.394,block3,j,1,0,2,2,6,1,1,top_left,neutral,threatening,0.4775,,,,,,,,,,,,,,,,,
,,,,,966677,f,y,r,n,11,0,2025-04-05_10h37.26.105,VisualSearchFaces,2024.2.4,Win32,59.88023952,,,,,,,,1344.3952,1344.5101,1344.5101,1346.5105,block3,j,1,0,3,3,10,1,1,centre,friendly,neutral,0.5674,,,,,,,,,,,,,,,,,
,,,,,966677,f,y,r,n,11,0,2025-04-05_10h37.26.105,VisualSearchFaces,2024.2.4,Win32,59.88023952,,,,,,,,1347.5119,1347.6266,1347.6266,1349.6272,block3,f,1,0,4,4,29,1,0,bottom_right,neutral,no_target,0.5031,,,,,,,,,,,,,,,,,
,,,,,966677,f,y,r,n,11,0,2025-04-05_10h37.26.105,VisualSearchFaces,2024.2.4,Win32,59.88023952,,,,,,,,1350.6285,1350.7396,1350.7396,1352.7437,block3,j,1,0,5,5,16,1,1,top_left,threatening,neutral,0.5548,,,,,,,,,,,,,,,,,
,,,,,966677,f,y,r,n,11,0,2025-04-05_10h37.26.105,VisualSearchFaces,2024.2.4,Win32,59.88023952,,,,,,,,1353.745,1353.8605,1353.8606,1355.8599,block3,j,1,0,6,6,2,1,1,top_right,neutral,friendly,0.4158,,,,,,,,,,,,,,,,,
,,,,,966677,f,y,r,n,11,0,2025-04-05_10h37.26.105,VisualSearchFaces,2024.2.4,Win32,59.88023952,,,,,,,,1356.8619,1356.9763,1356.9763,1358.9768,block3,j,1,0,7,7,0,1,1,centre,neutral,friendly,0.5502,,,,,,,,,,,,,,,,,
,,,,,966677,f,y,r,n,11,0,2025-04-05_10h37.26.105,VisualSearchFaces,2024.2.4,Win32,59.88023952,,,,,,,,1359.9785,1360.0935,1360.0935,1362.0935,block3,f,1,0,8,8,39,1,0,bottom_right,threatening,no_target,0.5335,,,,,,,,,,,,,,,,,
,,,,,966677,f,y,r,n,11,0,2025-04-05_10h37.26.105,VisualSearchFaces,2024.2.4,Win32,59.88023952,,,,,,,,1363.0944,1363.1937,1363.1937,1365.193,block3,f,1,0,9,9,38,1,0,bottom_left,threatening,no_target,0.5194,,,,,,,,,,,,,,,,,
,,,,,966677,f,y,r,n,11,0,2025-04-05_10h37.26.105,VisualSearchFaces,2024.2.4,Win32,59.88023952,,,,,,,,1366.195,1366.3095,1366.3095,1368.3101,block3,j,1,0,10,10,7,1,1,top_right,neutral,threatening,0.5199,,,,,,,,,,,,,,,,,
,,,,,966677,f,y,r,n,11,0,2025-04-05_10h37.26.105,VisualSearchFaces,2024.2.4,Win32,59.88023952,,,,,,,,1369.3115,1369.4269,1369.427,1371.4264,block3,j,1,0,11,11,15,1,1,centre,threatening,neutral,0.4673,,,,,,,,,,,,,,,,,
,,,,,966677,f,y,r,n,11,0,2025-04-05_10h37.26.105,VisualSearchFaces,2024.2.4,Win32,59.88023952,,,,,,,,1372.428,1372.5269,1372.5269,1374.5267,block3,f,1,0,12,12,27,1,0,top_right,neutral,no_target,0.533,,,,,,,,,,,,,,,,,
,,,,,966677,f,y,r,n,11,0,2025-04-05_10h37.26.105,VisualSearchFaces,2024.2.4,Win32,59.88023952,,,,,,,,1375.5281,1375.6435,1375.6436,1377.6434,block3,j,1,0,13,13,11,1,1,top_left,friendly,neutral,0.4994,,,,,,,,,,,,,,,,,
,,,,,966677,f,y,r,n,11,0,2025-04-05_10h37.26.105,VisualSearchFaces,2024.2.4,Win32,59.88023952,,,,,,,,1378.6447,1378.7436,1378.7437,1380.7429,block3,f,1,0,14,14,31,1,0,top_left,friendly,no_target,0.9866,,,,,,,,,,,,,,,,,
,,,,,966677,f,y,r,n,11,0,2025-04-05_10h37.26.105,VisualSearchFaces,2024.2.4,Win32,59.88023952,,,,,,,,1381.7447,1381.8594,1381.8594,1383.86,block3,j,1,0,15,15,4,1,1,bottom_right,neutral,friendly,0.471,,,,,,,,,,,,,,,,,
,,,,,966677,f,y,r,n,11,0,2025-04-05_10h37.26.105,VisualSearchFaces,2024.2.4,Win32,59.88023952,,,,,,,,1384.8617,1384.9766,1384.9767,1386.9766,block3,f,1,0,16,16,37,1,0,top_right,threatening,no_target,0.602,,,,,,,,,,,,,,,,,
,,,,,966677,f,y,r,n,11,0,2025-04-05_10h37.26.105,VisualSearchFaces,2024.2.4,Win32,59.88023952,,,,,,,,1387.9775,1388.0765,1388.0765,1390.0766,block3,j,1,0,17,17,9,1,1,bottom_right,neutral,threatening,0.4834,,,,,,,,,,,,,,,,,
,,,,,966677,f,y,r,n,11,0,2025-04-05_10h37.26.105,VisualSearchFaces,2024.2.4,Win32,59.88023952,,,,,,,,1391.078,1391.1933,1391.1933,1393.1932,block3,f,1,0,18,18,28,1,0,bottom_left,neutral,no_target,0.5025,,,,,,,,,,,,,,,,,
,,,,,966677,f,y,r,n,11,0,2025-04-05_10h37.26.105,VisualSearchFaces,2024.2.4,Win32,59.88023952,,,,,,,,1394.1939,1394.2926,1394.2926,1396.293,block3,f,1,0,19,19,33,1,0,bottom_left,friendly,no_target,0.7342,,,,,,,,,,,,,,,,,
,,,,,966677,f,y,r,n,11,0,2025-04-05_10h37.26.105,VisualSearchFaces,2024.2.4,Win32,59.88023952,,,,,,,,1397.2946,1397.4096,1397.4097,1399.4096,block3,f,1,0,20,20,20,1,0,centre,neutral,no_target,0.5166,,,,,,,,,,,,,,,,,
,,,,,966677,f,y,r,n,11,0,2025-04-05_10h37.26.105,VisualSearchFaces,2024.2.4,Win32,59.88023952,,,,,,,,1400.4118,1400.5113,1400.5115,1402.5097,block3,f,1,0,21,21,34,1,0,bottom_right,friendly,no_target,0.6976,,,,,,,,,,,,,,,,,
,,,,,966677,f,y,r,n,11,0,2025-04-05_10h37.26.105,VisualSearchFaces,2024.2.4,Win32,59.88023952,,,,,,,,1403.5112,1403.6261,1403.6262,1405.6265,block3,f,1,0,22,22,36,1,0,top_left,threatening,no_target,0.7677,,,,,,,,,,,,,,,,,
,,,,,966677,f,y,r,n,11,0,2025-04-05_10h37.26.105,VisualSearchFaces,2024.2.4,Win32,59.88023952,,,,,,,,1406.6277,1406.743,1406.743,1408.7429,block3,f,1,0,23,23,22,1,0,top_right,neutral,no_target,0.5996,,,,,,,,,,,,,,,,,
,,,,,966677,f,y,r,n,11,0,2025-04-05_10h37.26.105,VisualSearchFaces,2024.2.4,Win32,59.88023952,,,,,,,,1409.7437,1409.8481,1409.8482,1411.8429,block3,j,1,0,24,24,5,1,1,centre,neutral,threatening,0.4002,,,,,,,,,,,,,,,,,
,,,,,966677,f,y,r,n,11,0,2025-04-05_10h37.26.105,VisualSearchFaces,2024.2.4,Win32,59.88023952,,,,,,,,1412.8437,1412.943,1412.943,1414.9428,block3,j,1,0,25,25,1,1,1,top_left,neutral,friendly,0.4533,,,,,,,,,,,,,,,,,
,,,,,966677,f,y,r,n,11,0,2025-04-05_10h37.26.105,VisualSearchFaces,2024.2.4,Win32,59.88023952,,,,,,,,1415.9443,1416.0594,1416.0595,1418.0589,block3,f,1,0,26,26,32,1,0,top_right,friendly,no_target,0.6503,,,,,,,,,,,,,,,,,
,,,,,966677,f,y,r,n,11,0,2025-04-05_10h37.26.105,VisualSearchFaces,2024.2.4,Win32,59.88023952,,,,,,,,1419.0609,1419.1762,1419.1763,1421.1762,block3,f,1,0,27,27,23,1,0,bottom_left,neutral,no_target,0.5329,,,,,,,,,,,,,,,,,
,,,,,966677,f,y,r,n,11,0,2025-04-05_10h37.26.105,VisualSearchFaces,2024.2.4,Win32,59.88023952,,,,,,,,1422.1775,1422.292,1422.292,1424.2928,block3,f,1,0,28,28,24,1,0,bottom_right,neutral,no_target,0.5172,,,,,,,,,,,,,,,,,
,,,,,966677,f,y,r,n,11,0,2025-04-05_10h37.26.105,VisualSearchFaces,2024.2.4,Win32,59.88023952,,,,,,,,1425.2935,1425.3926,1425.3927,1427.3925,block3,j,1,0,29,29,19,1,1,bottom_right,threatening,neutral,0.4353,,,,,,,,,,,,,,,,,
,,,,,966677,f,y,r,n,11,0,2025-04-05_10h37.26.105,VisualSearchFaces,2024.2.4,Win32,59.88023952,,,,,,,,1428.394,1428.4927,1428.4928,1430.4927,block3,j,1,0,30,30,18,1,1,bottom_left,threatening,neutral,0.6662,,,,,,,,,,,,,,,,,
,,,,,966677,f,y,r,n,11,0,2025-04-05_10h37.26.105,VisualSearchFaces,2024.2.4,Win32,59.88023952,,,,,,,,1431.4943,1431.6092,1431.6092,1433.6091,block3,f,1,0,31,31,26,1,0,top_left,neutral,no_target,0.5167,,,,,,,,,,,,,,,,,
,,,,,966677,f,y,r,n,11,0,2025-04-05_10h37.26.105,VisualSearchFaces,2024.2.4,Win32,59.88023952,,,,,,,,1434.6106,1434.7257,1434.7258,1436.7258,block3,j,1,0,32,32,3,1,1,bottom_left,neutral,friendly,0.4171,,,,,,,,,,,,,,,,,
,,,,,966677,f,y,r,n,11,0,2025-04-05_10h37.26.105,VisualSearchFaces,2024.2.4,Win32,59.88023952,,,,,,,,1437.7272,1437.8426,1437.8427,1439.8423,block3,f,1,0,33,33,30,1,0,centre,friendly,no_target,0.6356,,,,,,,,,,,,,,,,,
,,,,,966677,f,y,r,n,11,0,2025-04-05_10h37.26.105,VisualSearchFaces,2024.2.4,Win32,59.88023952,,,,,,,,1440.8439,1440.9594,1440.9594,1442.9592,block3,j,1,0,34,34,14,1,1,bottom_right,friendly,neutral,0.4665,,,,,,,,,,,,,,,,,
,,,,,966677,f,y,r,n,11,0,2025-04-05_10h37.26.105,VisualSearchFaces,2024.2.4,Win32,59.88023952,,,,,,,,1443.9604,1444.0756,1444.0757,1446.0757,block3,j,1,0,35,35,13,1,1,bottom_left,friendly,neutral,0.4831,,,,,,,,,,,,,,,,,
,,,,,966677,f,y,r,n,11,0,2025-04-05_10h37.26.105,VisualSearchFaces,2024.2.4,Win32,59.88023952,,,,,,,,1447.0772,1447.1924,1447.1925,1449.1921,block3,j,1,0,36,36,8,1,1,bottom_left,neutral,threatening,0.4834,,,,,,,,,,,,,,,,,
,,,,,966677,f,y,r,n,11,0,2025-04-05_10h37.26.105,VisualSearchFaces,2024.2.4,Win32,59.88023952,,,,,,,,1450.1938,1450.3088,1450.3088,1452.309,block3,j,1,0,37,37,17,1,1,top_right,threatening,neutral,0.5336,,,,,,,,,,,,,,,,,
,,,,,966677,f,y,r,n,11,0,2025-04-05_10h37.26.105,VisualSearchFaces,2024.2.4,Win32,59.88023952,,,,,,,,1453.3104,1453.4256,1453.4258,1455.4258,block3,f,1,0,38,38,21,1,0,top_left,neutral,no_target,0.5513,,,,,,,,,,,,,,,,,
,,,,,966677,f,y,r,n,11,0,2025-04-05_10h37.26.105,VisualSearchFaces,2024.2.4,Win32,59.88023952,,,,,,,,1456.4269,1456.5423,1456.5424,1458.5422,block3,f,1,0,39,39,25,1,0,centre,neutral,no_target,0.568,,,,,,,,,,,,,,,,,
,,,,,966677,f,y,r,n,11,0,2025-04-05_10h37.26.105,VisualSearchFaces,2024.2.4,Win32,59.88023952,,,,,,,,1459.5437,1459.659,1459.6591,1461.6588,block3,j,1,1,0,40,3,1,1,bottom_left,neutral,friendly,0.4999,,,,,,,,,,,,,,,,,
,,,,,966677,f,y,r,n,11,0,2025-04-05_10h37.26.105,VisualSearchFaces,2024.2.4,Win32,59.88023952,,,,,,,,1462.6606,1462.7755,1462.7756,1464.7754,block3,j,1,1,1,41,13,1,1,bottom_left,friendly,neutral,0.5011,,,,,,,,,,,,,,,,,
,,,,,966677,f,y,r,n,11,0,2025-04-05_10h37.26.105,VisualSearchFaces,2024.2.4,Win32,59.88023952,,,,,,,,1465.7777,1465.8918,1465.8918,1467.8921,block3,f,1,1,2,42,22,1,0,top_right,neutral,no_target,0.5523,,,,,,,,,,,,,,,,,
,,,,,966677,f,y,r,n,11,0,2025-04-05_10h37.26.105,VisualSearchFaces,2024.2.4,Win32,59.88023952,,,,,,,,1468.8936,1469.0086,1469.0087,1471.0158,block3,f,1,1,3,43,20,1,0,centre,neutral,no_target,0.4176,,,,,,,,,,,,,,,,,
,,,,,966677,f,y,r,n,11,0,2025-04-05_10h37.26.105,VisualSearchFaces,2024.2.4,Win32,59.88023952,,,,,,,,1472.0101,1472.1253,1472.1253,1474.1247,block3,j,1,1,4,44,9,1,1,bottom_right,neutral,threatening,0.3708,,,,,,,,,,,,,,,,,
,,,,,966677,f,y,r,n,11,0,2025-04-05_10h37.26.105,VisualSearchFaces,2024.2.4,Win32,59.88023952,,,,,,,,1475.126,1475.2252,1475.2253,1477.2253,block3,f,1,1,5,45,33,1,0,bottom_left,friendly,no_target,0.5513,,,,,,,,,,,,,,,,,
,,,,,966677,f,y,r,n,11,0,2025-04-05_10h37.26.105,VisualSearchFaces,2024.2.4,Win32,59.88023952,,,,,,,,1478.2259,1478.3255,1478.3255,1480.3251,block3,j,1,1,6,46,7,1,1,top_right,neutral,threatening,0.4333,,,,,,,,,,,,,,,,,
,,,,,966677,f,y,r,n,11,0,2025-04-05_10h37.26.105,VisualSearchFaces,2024.2.4,Win32,59.88023952,,,,,,,,1481.3268,1481.442,1481.442,1483.4414,block3,f,1,1,7,47,25,1,0,centre,neutral,no_target,0.4518,,,,,,,,,,,,,,,,,
,,,,,966677,f,y,r,n,11,0,2025-04-05_10h37.26.105,VisualSearchFaces,2024.2.4,Win32,59.88023952,,,,,,,,1484.4431,1484.5584,1484.5585,1486.5584,block3,f,1,1,8,48,37,1,0,top_right,threatening,no_target,0.5672,,,,,,,,,,,,,,,,,
,,,,,966677,f,y,r,n,11,0,2025-04-05_10h37.26.105,VisualSearchFaces,2024.2.4,Win32,59.88023952,,,,,,,,1487.5593,1487.6584,1487.6585,1489.6579,block3,f,1,1,9,49,26,1,0,top_left,neutral,no_target,0.4826,,,,,,,,,,,,,,,,,
,,,,,966677,f,y,r,n,11,0,2025-04-05_10h37.26.105,VisualSearchFaces,2024.2.4,Win32,59.88023952,,,,,,,,1490.6593,1490.7583,1490.7583,1492.7583,block3,j,1,1,10,50,6,1,1,top_left,neutral,threatening,0.4508,,,,,,,,,,,,,,,,,
,,,,,966677,f,y,r,n,11,0,2025-04-05_10h37.26.105,VisualSearchFaces,2024.2.4,Win32,59.88023952,,,,,,,,1493.7597,1493.8749,1493.875,1495.8749,block3,j,1,1,11,51,15,1,1,centre,threatening,neutral,1.395,,,,,,,,,,,,,,,,,
,,,,,966677,f,y,r,n,11,0,2025-04-05_10h37.26.105,VisualSearchFaces,2024.2.4,Win32,59.88023952,,,,,,,,1496.8765,1496.9917,1496.9917,1498.9916,block3,j,1,1,12,52,4,1,1,bottom_right,neutral,friendly,0.6662,,,,,,,,,,,,,,,,,
,,,,,966677,f,y,r,n,11,0,2025-04-05_10h37.26.105,VisualSearchFaces,2024.2.4,Win32,59.88023952,,,,,,,,1499.993,1500.1081,1500.1082,1502.1083,block3,f,1,1,13,53,27,1,0,top_right,neutral,no_target,0.4508,,,,,,,,,,,,,,,,,
,,,,,966677,f,y,r,n,11,0,2025-04-05_10h37.26.105,VisualSearchFaces,2024.2.4,Win32,59.88023952,,,,,,,,1503.1096,1503.2244,1503.2244,1505.2249,block3,j,1,1,14,54,14,1,1,bottom_right,friendly,neutral,0.4677,,,,,,,,,,,,,,,,,
,,,,,966677,f,y,r,n,11,0,2025-04-05_10h37.26.105,VisualSearchFaces,2024.2.4,Win32,59.88023952,,,,,,,,1506.2263,1506.3415,1506.3416,1508.3414,block3,f,1,1,15,55,38,1,0,bottom_left,threatening,no_target,0.5528,,,,,,,,,,,,,,,,,
,,,,,966677,f,y,r,n,11,0,2025-04-05_10h37.26.105,VisualSearchFaces,2024.2.4,Win32,59.88023952,,,,,,,,1509.3423,1509.4415,1509.4416,1511.4412,block3,f,1,1,16,56,39,1,0,bottom_right,threatening,no_target,0.4378,,,,,,,,,,,,,,,,,
,,,,,966677,f,y,r,n,11,0,2025-04-05_10h37.26.105,VisualSearchFaces,2024.2.4,Win32,59.88023952,,,,,,,,1512.4429,1512.5416,1512.5416,1514.5411,block3,j,1,1,17,57,2,1,1,top_right,neutral,friendly,0.4835,,,,,,,,,,,,,,,,,
,,,,,966677,f,y,r,n,11,0,2025-04-05_10h37.26.105,VisualSearchFaces,2024.2.4,Win32,59.88023952,,,,,,,,1515.5433,1515.6581,1515.6581,1517.6581,block3,f,1,1,18,58,30,1,0,centre,friendly,no_target,0.6333,,,,,,,,,,,,,,,,,
,,,,,966677,f,y,r,n,11,0,2025-04-05_10h37.26.105,VisualSearchFaces,2024.2.4,Win32,59.88023952,,,,,,,,1518.6591,1518.7582,1518.7582,1520.758,block3,j,1,1,19,59,1,1,1,top_left,neutral,friendly,0.533,,,,,,,,,,,,,,,,,
,,,,,966677,f,y,r,n,11,0,2025-04-05_10h37.26.105,VisualSearchFaces,2024.2.4,Win32,59.88023952,,,,,,,,1521.771,1521.8747,1521.8748,1523.8745,block3,f,1,1,20,60,36,1,0,top_left,threatening,no_target,0.537,,,,,,,,,,,,,,,,,
,,,,,966677,f,y,r,n,11,0,2025-04-05_10h37.26.105,VisualSearchFaces,2024.2.4,Win32,59.88023952,,,,,,,,1524.8761,1524.9911,1524.9912,1526.9912,block3,f,1,1,21,61,28,1,0,bottom_left,neutral,no_target,0.5345,,,,,,,,,,,,,,,,,
,,,,,966677,f,y,r,n,11,0,2025-04-05_10h37.26.105,VisualSearchFaces,2024.2.4,Win32,59.88023952,,,,,,,,1527.9928,1528.1079,1528.108,1530.1078,block3,f,1,1,22,62,21,1,0,top_left,neutral,no_target,0.4345,,,,,,,,,,,,,,,,,
,,,,,966677,f,y,r,n,11,0,2025-04-05_10h37.26.105,VisualSearchFaces,2024.2.4,Win32,59.88023952,,,,,,,,1531.1094,1531.2081,1531.2081,1533.2073,block3,f,1,1,23,63,35,1,0,centre,threatening,no_target,0.5671,,,,,,,,,,,,,,,,,
,,,,,966677,f,y,r,n,11,0,2025-04-05_10h37.26.105,VisualSearchFaces,2024.2.4,Win32,59.88023952,,,,,,,,1534.2091,1534.3168,1534.3168,1536.3078,block3,j,1,1,24,64,5,1,1,centre,neutral,threatening,0.4251,,,,,,,,,,,,,,,,,
,,,,,966677,f,y,r,n,11,0,2025-04-05_10h37.26.105,VisualSearchFaces,2024.2.4,Win32,59.88023952,,,,,,,,1537.3093,1537.4245,1537.4246,1539.4243,block3,f,1,1,25,65,31,1,0,top_left,friendly,no_target,0.7503,,,,,,,,,,,,,,,,,
,,,,,966677,f,y,r,n,11,0,2025-04-05_10h37.26.105,VisualSearchFaces,2024.2.4,Win32,59.88023952,,,,,,,,1540.4259,1540.5411,1540.5412,1542.5406,block3,j,1,1,26,66,18,1,1,bottom_left,threatening,neutral,0.4838,,,,,,,,,,,,,,,,,
,,,,,966677,f,y,r,n,11,0,2025-04-05_10h37.26.105,VisualSearchFaces,2024.2.4,Win32,59.88023952,,,,,,,,1543.5423,1543.6412,1543.6412,1545.6405,block3,f,1,1,27,67,24,1,0,bottom_right,neutral,no_target,0.5002,,,,,,,,,,,,,,,,,
,,,,,966677,f,y,r,n,11,0,2025-04-05_10h37.26.105,VisualSearchFaces,2024.2.4,Win32,59.88023952,,,,,,,,1546.6424,1546.7578,1546.7578,1548.7571,block3,f,1,1,28,68,34,1,0,bottom_right,friendly,no_target,0.6003,,,,,,,,,,,,,,,,,
,,,,,966677,f,y,r,n,11,0,2025-04-05_10h37.26.105,VisualSearchFaces,2024.2.4,Win32,59.88023952,,,,,,,,1549.7588,1549.8742,1549.8743,1551.8735,block3,j,1,1,29,69,16,1,1,top_left,threatening,neutral,0.3666,,,,,,,,,,,,,,,,,
,,,,,966677,f,y,r,n,11,0,2025-04-05_10h37.26.105,VisualSearchFaces,2024.2.4,Win32,59.88023952,,,,,,,,1552.8758,1552.9909,1552.991,1554.9909,block3,f,1,1,30,70,32,1,0,top_right,friendly,no_target,0.5336,,,,,,,,,,,,,,,,,
,,,,,966677,f,y,r,n,11,0,2025-04-05_10h37.26.105,VisualSearchFaces,2024.2.4,Win32,59.88023952,,,,,,,,1555.9923,1556.0955,1556.0955,1558.0906,block3,j,1,1,31,71,11,1,1,top_left,friendly,neutral,0.4137,,,,,,,,,,,,,,,,,
,,,,,966677,f,y,r,n,11,0,2025-04-05_10h37.26.105,VisualSearchFaces,2024.2.4,Win32,59.88023952,,,,,,,,1559.0923,1559.1909,1559.1909,1561.1908,block3,j,1,1,32,72,17,1,1,top_right,threatening,neutral,0.536,,,,,,,,,,,,,,,,,
,,,,,966677,f,y,r,n,11,0,2025-04-05_10h37.26.105,VisualSearchFaces,2024.2.4,Win32,59.88023952,,,,,,,,1562.1922,1562.3074,1562.3075,1564.299,block3,j,1,1,33,73,8,1,1,bottom_left,neutral,threatening,0.4863,,,,,,,,,,,,,,,,,
,,,,,966677,f,y,r,n,11,0,2025-04-05_10h37.26.105,VisualSearchFaces,2024.2.4,Win32,59.88023952,,,,,,,,1565.3086,1565.4242,1565.4242,1567.4242,block3,j,1,1,34,74,0,1,1,centre,neutral,friendly,0.3671,,,,,,,,,,,,,,,,,
,,,,,966677,f,y,r,n,11,0,2025-04-05_10h37.26.105,VisualSearchFaces,2024.2.4,Win32,59.88023952,,,,,,,,1568.4254,1568.5408,1568.5408,1570.541,block3,f,1,1,35,75,23,1,0,bottom_left,neutral,no_target,0.367,,,,,,,,,,,,,,,,,
,,,,,966677,f,y,r,n,11,0,2025-04-05_10h37.26.105,VisualSearchFaces,2024.2.4,Win32,59.88023952,,,,,,,,1571.5421,1571.6567,1571.6568,1573.6459,block3,f,1,1,36,76,29,1,0,bottom_right,neutral,no_target,0.3844,,,,,,,,,,,,,,,,,
,,,,,966677,f,y,r,n,11,0,2025-04-05_10h37.26.105,VisualSearchFaces,2024.2.4,Win32,59.88023952,,,,,,,,1574.6587,1574.774,1574.774,1576.7737,block3,j,1,1,37,77,10,1,1,centre,friendly,neutral,0.3507,,,,,,,,,,,,,,,,,
,,,,,966677,f,y,r,n,11,0,2025-04-05_10h37.26.105,VisualSearchFaces,2024.2.4,Win32,59.88023952,,,,,,,,1577.7719,1577.8733,1577.8734,1579.8735,block3,j,1,1,38,78,19,1,1,bottom_right,threatening,neutral,0.4185,,,,,,,,,,,,,,,,,
,,,,,966677,f,y,r,n,11,0,2025-04-05_10h37.26.105,VisualSearchFaces,2024.2.4,Win32,59.88023952,,,,,,,,1580.8752,1581.0033,1581.0034,1583.0071,block3,j,1,1,39,79,12,1,1,top_right,friendly,neutral,0.5206,,,,,,,,,,,,,,,,,
,,,,,966677,f,y,r,n,11,0,2025-04-05_10h37.26.105,VisualSearchFaces,2024.2.4,Win32,59.88023952,,,1734.6914,1740.6382,space,5.9161,,1741.6396,1741.755,1741.755,1743.7549,block4,j,1,0,0,0,12,1,1,top_right,friendly,neutral,0.5022,,1583.0091,1734.6882,space,151.6482,,,,,,,,,,,,
,,,,,966677,f,y,r,n,11,0,2025-04-05_10h37.26.105,VisualSearchFaces,2024.2.4,Win32,59.88023952,,,,,,,,1744.7565,1744.8717,1744.8717,1746.8714,block4,j,1,0,1,1,1,1,1,top_left,neutral,friendly,0.544,,,,,,,,,,,,,,,,,
,,,,,966677,f,y,r,n,11,0,2025-04-05_10h37.26.105,VisualSearchFaces,2024.2.4,Win32,59.88023952,,,,,,,,1747.873,1747.9877,1747.9878,1749.9881,block4,j,1,0,2,2,17,1,1,top_right,threatening,neutral,0.4344,,,,,,,,,,,,,,,,,
,,,,,966677,f,y,r,n,11,0,2025-04-05_10h37.26.105,VisualSearchFaces,2024.2.4,Win32,59.88023952,,,,,,,,1750.9895,1751.1045,1751.1046,1753.1047,block4,f,1,0,3,3,20,1,0,centre,neutral,no_target,0.3538,,,,,,,,,,,,,,,,,
,,,,,966677,f,y,r,n,11,0,2025-04-05_10h37.26.105,VisualSearchFaces,2024.2.4,Win32,59.88023952,,,,,,,,1754.1064,1754.2216,1754.2216,1756.2213,block4,f,0,0,4,4,3,1,1,bottom_left,neutral,friendly,0.3842,,,,,,,,,,,,,,,,,
,,,,,966677,f,y,r,n,11,0,2025-04-05_10h37.26.105,VisualSearchFaces,2024.2.4,Win32,59.88023952,,,,,,,,1757.2228,1757.3379,1757.3379,1759.3381,block4,j,0,0,5,5,27,1,0,top_right,neutral,no_target,0.4031,,,,,,,,,,,,,,,,,
,,,,,966677,f,y,r,n,11,0,2025-04-05_10h37.26.105,VisualSearchFaces,2024.2.4,Win32,59.88023952,,,,,,,,1760.3388,1760.438,1760.4381,1762.4332,block4,j,1,0,6,6,7,1,1,top_right,neutral,threatening,1.5177,,,,,,,,,,,,,,,,,
,,,,,966677,f,y,r,n,11,0,2025-04-05_10h37.26.105,VisualSearchFaces,2024.2.4,Win32,59.88023952,,,,,,,,1763.4394,1763.5546,1763.5547,1765.554,block4,f,1,0,7,7,36,1,0,top_left,threatening,no_target,0.751,,,,,,,,,,,,,,,,,
,,,,,966677,f,y,r,n,11,0,2025-04-05_10h37.26.105,VisualSearchFaces,2024.2.4,Win32,59.88023952,,,,,,,,1766.5559,1766.6713,1766.6713,1768.6713,block4,f,1,0,8,8,38,1,0,bottom_left,threatening,no_target,0.7665,,,,,,,,,,,,,,,,,
,,,,,966677,f,y,r,n,11,0,2025-04-05_10h37.26.105,VisualSearchFaces,2024.2.4,Win32,59.88023952,,,,,,,,1769.673,1769.7727,1769.7727,1771.7713,block4,f,1,0,9,9,31,1,0,top_left,friendly,no_target,0.9317,,,,,,,,,,,,,,,,,
,,,,,966677,f,y,r,n,11,0,2025-04-05_10h37.26.105,VisualSearchFaces,2024.2.4,Win32,59.88023952,,,,,,,,1772.7726,1772.8878,1772.8878,1774.8879,block4,j,1,0,10,10,5,1,1,centre,neutral,threatening,0.6677,,,,,,,,,,,,,,,,,
,,,,,966677,f,y,r,n,11,0,2025-04-05_10h37.26.105,VisualSearchFaces,2024.2.4,Win32,59.88023952,,,,,,,,1775.8892,1776.0153,1776.0154,1778.0041,block4,j,1,0,11,11,0,1,1,centre,neutral,friendly,0.5431,,,,,,,,,,,,,,,,,
,,,,,966677,f,y,r,n,11,0,2025-04-05_10h37.26.105,VisualSearchFaces,2024.2.4,Win32,59.88023952,,,,,,,,1779.0058,1779.1209,1779.121,1781.121,block4,j,1,0,12,12,16,1,1,top_left,threatening,neutral,0.6831,,,,,,,,,,,,,,,,,
,,,,,966677,f,y,r,n,11,0,2025-04-05_10h37.26.105,VisualSearchFaces,2024.2.4,Win32,59.88023952,,,,,,,,1782.1224,1782.2379,1782.2379,1784.2375,block4,j,1,0,13,13,10,1,1,centre,friendly,neutral,1.1334,,,,,,,,,,,,,,,,,
,,,,,966677,f,y,r,n,11,0,2025-04-05_10h37.26.105,VisualSearchFaces,2024.2.4,Win32,59.88023952,,,,,,,,1785.239,1785.338,1785.338,1787.3376,block4,j,1,0,14,14,11,1,1,top_left,friendly,neutral,0.8158,,,,,,,,,,,,,,,,,
,,,,,966677,f,y,r,n,11,0,2025-04-05_10h37.26.105,VisualSearchFaces,2024.2.4,Win32,59.88023952,,,,,,,,1788.3389,1788.4542,1788.4542,1790.4536,block4,f,1,0,15,15,28,1,0,bottom_left,neutral,no_target,0.5844,,,,,,,,,,,,,,,,,
,,,,,966677,f,y,r,n,11,0,2025-04-05_10h37.26.105,VisualSearchFaces,2024.2.4,Win32,59.88023952,,,,,,,,1791.4554,1791.5712,1791.5712,1793.5708,block4,f,1,0,16,16,24,1,0,bottom_right,neutral,no_target,0.5337,,,,,,,,,,,,,,,,,
,,,,,966677,f,y,r,n,11,0,2025-04-05_10h37.26.105,VisualSearchFaces,2024.2.4,Win32,59.88023952,,,,,,,,1794.572,1794.6875,1794.6875,1796.6874,block4,f,1,0,17,17,39,1,0,bottom_right,threatening,no_target,1.1178,,,,,,,,,,,,,,,,,
,,,,,966677,f,y,r,n,11,0,2025-04-05_10h37.26.105,VisualSearchFaces,2024.2.4,Win32,59.88023952,,,,,,,,1797.6889,1797.8035,1797.8035,1799.804,block4,f,1,0,18,18,22,1,0,top_right,neutral,no_target,0.6181,,,,,,,,,,,,,,,,,
,,,,,966677,f,y,r,n,11,0,2025-04-05_10h37.26.105,VisualSearchFaces,2024.2.4,Win32,59.88023952,,,,,,,,1800.8062,1800.9049,1800.9049,1802.9036,block4,f,1,0,19,19,35,1,0,centre,threatening,no_target,0.7149,,,,,,,,,,,,,,,,,
,,,,,966677,f,y,r,n,11,0,2025-04-05_10h37.26.105,VisualSearchFaces,2024.2.4,Win32,59.88023952,,,,,,,,1803.9053,1804.0208,1804.0209,1806.0206,block4,f,1,0,20,20,34,1,0,bottom_right,friendly,no_target,1.1999,,,,,,,,,,,,,,,,,
,,,,,966677,f,y,r,n,11,0,2025-04-05_10h37.26.105,VisualSearchFaces,2024.2.4,Win32,59.88023952,,,,,,,,1807.022,1807.1209,1807.1209,1809.1205,block4,j,1,0,21,21,2,1,1,top_right,neutral,friendly,0.6173,,,,,,,,,,,,,,,,,
,,,,,966677,f,y,r,n,11,0,2025-04-05_10h37.26.105,VisualSearchFaces,2024.2.4,Win32,59.88023952,,,,,,,,1810.122,1810.2373,1810.2374,1812.2368,block4,f,1,0,22,22,21,1,0,top_left,neutral,no_target,0.5207,,,,,,,,,,,,,,,,,
,,,,,966677,f,y,r,n,11,0,2025-04-05_10h37.26.105,VisualSearchFaces,2024.2.4,Win32,59.88023952,,,,,,,,1813.2383,1813.3373,1813.3373,1815.3374,block4,j,1,0,23,23,4,1,1,bottom_right,neutral,friendly,0.5333,,,,,,,,,,,,,,,,,
,,,,,966677,f,y,r,n,11,0,2025-04-05_10h37.26.105,VisualSearchFaces,2024.2.4,Win32,59.88023952,,,,,,,,1816.3388,1816.4537,1816.4538,1818.4536,block4,f,1,0,24,24,23,1,0,bottom_left,neutral,no_target,0.4686,,,,,,,,,,,,,,,,,
,,,,,966677,f,y,r,n,11,0,2025-04-05_10h37.26.105,VisualSearchFaces,2024.2.4,Win32,59.88023952,,,,,,,,1819.4561,1819.5564,1819.5564,1821.5539,block4,j,1,0,25,25,14,1,1,bottom_right,friendly,neutral,0.6148,,,,,,,,,,,,,,,,,
,,,,,966677,f,y,r,n,11,0,2025-04-05_10h37.26.105,VisualSearchFaces,2024.2.4,Win32,59.88023952,,,,,,,,1822.5553,1822.6706,1822.6707,1824.6707,block4,j,1,0,26,26,18,1,1,bottom_left,threatening,neutral,0.6163,,,,,,,,,,,,,,,,,
,,,,,966677,f,y,r,n,11,0,2025-04-05_10h37.26.105,VisualSearchFaces,2024.2.4,Win32,59.88023952,,,,,,,,1825.6713,1825.7703,1825.7703,1827.7702,block4,f,1,0,27,27,37,1,0,top_right,threatening,no_target,0.721,,,,,,,,,,,,,,,,,
,,,,,966677,f,y,r,n,11,0,2025-04-05_10h37.26.105,VisualSearchFaces,2024.2.4,Win32,59.88023952,,,,,,,,1828.7718,1828.8872,1828.8872,1830.8868,block4,f,1,0,28,28,32,1,0,top_right,friendly,no_target,0.6515,,,,,,,,,,,,,,,,,
,,,,,966677,f,y,r,n,11,0,2025-04-05_10h37.26.105,VisualSearchFaces,2024.2.4,Win32,59.88023952,,,,,,,,1831.8887,1832.0037,1832.0038,1834.0038,block4,f,1,0,29,29,25,1,0,centre,neutral,no_target,0.7191,,,,,,,,,,,,,,,,,
,,,,,966677,f,y,r,n,11,0,2025-04-05_10h37.26.105,VisualSearchFaces,2024.2.4,Win32,59.88023952,,,,,,,,1835.0051,1835.1067,1835.1067,1837.1037,block4,j,1,0,30,30,15,1,1,centre,threatening,neutral,0.6137,,,,,,,,,,,,,,,,,
,,,,,966677,f,y,r,n,11,0,2025-04-05_10h37.26.105,VisualSearchFaces,2024.2.4,Win32,59.88023952,,,,,,,,1838.1051,1838.2201,1838.2202,1840.2201,block4,j,1,0,31,31,9,1,1,bottom_right,neutral,threatening,0.5046,,,,,,,,,,,,,,,,,
,,,,,966677,f,y,r,n,11,0,2025-04-05_10h37.26.105,VisualSearchFaces,2024.2.4,Win32,59.88023952,,,,,,,,1841.2216,1841.337,1841.337,1843.3368,block4,j,1,0,32,32,19,1,1,bottom_right,threatening,neutral,0.5837,,,,,,,,,,,,,,,,,
,,,,,966677,f,y,r,n,11,0,2025-04-05_10h37.26.105,VisualSearchFaces,2024.2.4,Win32,59.88023952,,,,,,,,1844.3378,1844.4369,1844.4369,1846.4363,block4,f,1,0,33,33,30,1,0,centre,friendly,no_target,0.6502,,,,,,,,,,,,,,,,,
,,,,,966677,f,y,r,n,11,0,2025-04-05_10h37.26.105,VisualSearchFaces,2024.2.4,Win32,59.88023952,,,,,,,,1847.4385,1847.5535,1847.5535,1849.5533,block4,j,1,0,34,34,6,1,1,top_left,neutral,threatening,0.5668,,,,,,,,,,,,,,,,,
,,,,,966677,f,y,r,n,11,0,2025-04-05_10h37.26.105,VisualSearchFaces,2024.2.4,Win32,59.88023952,,,,,,,,1850.5551,1850.6701,1850.6701,1852.6702,block4,f,1,0,35,35,29,1,0,bottom_right,neutral,no_target,0.5517,,,,,,,,,,,,,,,,,
,,,,,966677,f,y,r,n,11,0,2025-04-05_10h37.26.105,VisualSearchFaces,2024.2.4,Win32,59.88023952,,,,,,,,1853.6715,1853.7702,1853.7702,1855.7701,block4,j,1,0,36,36,8,1,1,bottom_left,neutral,threatening,0.4667,,,,,,,,,,,,,,,,,
,,,,,966677,f,y,r,n,11,0,2025-04-05_10h37.26.105,VisualSearchFaces,2024.2.4,Win32,59.88023952,,,,,,,,1856.7712,1856.8861,1856.8861,1858.8866,block4,f,1,0,37,37,26,1,0,top_left,neutral,no_target,0.7019,,,,,,,,,,,,,,,,,
,,,,,966677,f,y,r,n,11,0,2025-04-05_10h37.26.105,VisualSearchFaces,2024.2.4,Win32,59.88023952,,,,,,,,1859.8881,1859.995,1859.9951,1861.9865,block4,j,1,0,38,38,13,1,1,bottom_left,friendly,neutral,0.5116,,,,,,,,,,,,,,,,,
,,,,,966677,f,y,r,n,11,0,2025-04-05_10h37.26.105,VisualSearchFaces,2024.2.4,Win32,59.88023952,,,,,,,,1862.9879,1863.1033,1863.1034,1865.1033,block4,f,1,0,39,39,33,1,0,bottom_left,friendly,no_target,0.8004,,,,,,,,,,,,,,,,,
,,,,,966677,f,y,r,n,11,0,2025-04-05_10h37.26.105,VisualSearchFaces,2024.2.4,Win32,59.88023952,,,,,,,,1866.1045,1866.2198,1866.2199,1868.2195,block4,f,1,1,0,40,34,1,0,bottom_right,friendly,no_target,0.6174,,,,,,,,,,,,,,,,,
,,,,,966677,f,y,r,n,11,0,2025-04-05_10h37.26.105,VisualSearchFaces,2024.2.4,Win32,59.88023952,,,,,,,,1869.2215,1869.3223,1869.3223,1871.3197,block4,f,1,1,1,41,33,1,0,bottom_left,friendly,no_target,0.7005,,,,,,,,,,,,,,,,,
,,,,,966677,f,y,r,n,11,0,2025-04-05_10h37.26.105,VisualSearchFaces,2024.2.4,Win32,59.88023952,,,,,,,,1872.3212,1872.4198,1872.42,1874.4201,block4,j,1,1,2,42,0,1,1,centre,neutral,friendly,0.4861,,,,,,,,,,,,,,,,,
,,,,,966677,f,y,r,n,11,0,2025-04-05_10h37.26.105,VisualSearchFaces,2024.2.4,Win32,59.88023952,,,,,,,,1875.4211,1875.5364,1875.5364,1877.5364,block4,f,1,1,3,43,31,1,0,top_left,friendly,no_target,0.6542,,,,,,,,,,,,,,,,,
,,,,,966677,f,y,r,n,11,0,2025-04-05_10h37.26.105,VisualSearchFaces,2024.2.4,Win32,59.88023952,,,,,,,,1878.538,1878.6531,1878.6531,1880.653,block4,j,1,1,4,44,7,1,1,top_right,neutral,threatening,0.4669,,,,,,,,,,,,,,,,,
,,,,,966677,f,y,r,n,11,0,2025-04-05_10h37.26.105,VisualSearchFaces,2024.2.4,Win32,59.88023952,,,,,,,,1881.6544,1881.7697,1881.7697,1883.7692,block4,f,1,1,5,45,23,1,0,bottom_left,neutral,no_target,0.5202,,,,,,,,,,,,,,,,,
,,,,,966677,f,y,r,n,11,0,2025-04-05_10h37.26.105,VisualSearchFaces,2024.2.4,Win32,59.88023952,,,,,,,,1884.7712,1884.8866,1884.8867,1886.886,block4,f,1,1,6,46,25,1,0,centre,neutral,no_target,0.533,,,,,,,,,,,,,,,,,
,,,,,966677,f,y,r,n,11,0,2025-04-05_10h37.26.105,VisualSearchFaces,2024.2.4,Win32,59.88023952,,,,,,,,1887.8875,1888.0024,1888.0024,1890.0028,block4,j,1,1,7,47,8,1,1,bottom_left,neutral,threatening,0.3679,,,,,,,,,,,,,,,,,
,,,,,966677,f,y,r,n,11,0,2025-04-05_10h37.26.105,VisualSearchFaces,2024.2.4,Win32,59.88023952,,,,,,,,1891.0044,1891.1196,1891.1196,1893.1196,block4,f,1,1,8,48,27,1,0,top_right,neutral,no_target,0.4826,,,,,,,,,,,,,,,,,
,,,,,966677,f,y,r,n,11,0,2025-04-05_10h37.26.105,VisualSearchFaces,2024.2.4,Win32,59.88023952,,,,,,,,1894.1211,1894.2362,1894.2363,1896.236,block4,f,1,1,9,49,36,1,0,top_left,threatening,no_target,0.5829,,,,,,,,,,,,,,,,,
,,,,,966677,f,y,r,n,11,0,2025-04-05_10h37.26.105,VisualSearchFaces,2024.2.4,Win32,59.88023952,,,,,,,,1897.2374,1897.3528,1897.3529,1899.3528,block4,f,1,1,10,50,38,1,0,bottom_left,threatening,no_target,0.5341,,,,,,,,,,,,,,,,,
,,,,,966677,f,y,r,n,11,0,2025-04-05_10h37.26.105,VisualSearchFaces,2024.2.4,Win32,59.88023952,,,,,,,,1900.3542,1900.4689,1900.469,1902.4687,block4,j,1,1,11,51,18,1,1,bottom_left,threatening,neutral,0.4345,,,,,,,,,,,,,,,,,
,,,,,966677,f,y,r,n,11,0,2025-04-05_10h37.26.105,VisualSearchFaces,2024.2.4,Win32,59.88023952,,,,,,,,1903.4709,1903.5695,1903.5696,1905.5693,block4,j,1,1,12,52,13,1,1,bottom_left,friendly,neutral,0.5002,,,,,,,,,,,,,,,,,
,,,,,966677,f,y,r,n,11,0,2025-04-05_10h37.26.105,VisualSearchFaces,2024.2.4,Win32,59.88023952,,,,,,,,1906.5704,1906.6694,1906.6694,1908.6692,block4,j,1,1,13,53,3,1,1,bottom_left,neutral,friendly,0.4169,,,,,,,,,,,,,,,,,
,,,,,966677,f,y,r,n,11,0,2025-04-05_10h37.26.105,VisualSearchFaces,2024.2.4,Win32,59.88023952,,,,,,,,1909.6708,1909.7755,1909.7755,1911.7693,block4,j,1,1,14,54,1,1,1,top_left,neutral,friendly,0.5752,,,,,,,,,,,,,,,,,
,,,,,966677,f,y,r,n,11,0,2025-04-05_10h37.26.105,VisualSearchFaces,2024.2.4,Win32,59.88023952,,,,,,,,1912.7706,1912.8861,1912.8861,1914.8857,block4,j,1,1,15,55,5,1,1,centre,neutral,threatening,0.4169,,,,,,,,,,,,,,,,,
,,,,,966677,f,y,r,n,11,0,2025-04-05_10h37.26.105,VisualSearchFaces,2024.2.4,Win32,59.88023952,,,,,,,,1915.8876,1916.0026,1916.0026,1918.0026,block4,f,1,1,16,56,32,1,0,top_right,friendly,no_target,0.6002,,,,,,,,,,,,,,,,,
,,,,,966677,f,y,r,n,11,0,2025-04-05_10h37.26.105,VisualSearchFaces,2024.2.4,Win32,59.88023952,,,,,,,,1919.0042,1919.1045,1919.1045,1921.1024,block4,j,1,1,17,57,9,1,1,bottom_right,neutral,threatening,0.6646,,,,,,,,,,,,,,,,,
,,,,,966677,f,y,r,n,11,0,2025-04-05_10h37.26.105,VisualSearchFaces,2024.2.4,Win32,59.88023952,,,,,,,,1922.104,1922.2191,1922.2192,1924.219,block4,f,1,1,18,58,26,1,0,top_left,neutral,no_target,0.4789,,,,,,,,,,,,,,,,,
,,,,,966677,f,y,r,n,11,0,2025-04-05_10h37.26.105,VisualSearchFaces,2024.2.4,Win32,59.88023952,,,,,,,,1925.2205,1925.327,1925.327,1927.3189,block4,f,1,1,19,59,37,1,0,top_right,threatening,no_target,0.6426,,,,,,,,,,,,,,,,,
,,,,,966677,f,y,r,n,11,0,2025-04-05_10h37.26.105,VisualSearchFaces,2024.2.4,Win32,59.88023952,,,,,,,,1928.3207,1928.4358,1928.4358,1930.435,block4,f,1,1,20,60,28,1,0,bottom_left,neutral,no_target,0.5169,,,,,,,,,,,,,,,,,
,,,,,966677,f,y,r,n,11,0,2025-04-05_10h37.26.105,VisualSearchFaces,2024.2.4,Win32,59.88023952,,,,,,,,1931.4369,1931.5359,1931.5359,1933.5274,block4,f,1,1,21,61,39,1,0,bottom_right,threatening,no_target,0.7002,,,,,,,,,,,,,,,,,
,,,,,966677,f,y,r,n,11,0,2025-04-05_10h37.26.105,VisualSearchFaces,2024.2.4,Win32,59.88023952,,,,,,,,1934.5369,1934.6382,1934.6382,1936.6353,block4,j,1,1,22,62,15,1,1,centre,threatening,neutral,0.4641,,,,,,,,,,,,,,,,,
,,,,,966677,f,y,r,n,11,0,2025-04-05_10h37.26.105,VisualSearchFaces,2024.2.4,Win32,59.88023952,,,,,,,,1937.637,1937.7524,1937.7525,1939.7522,block4,j,1,1,23,63,14,1,1,bottom_right,friendly,neutral,0.5848,,,,,,,,,,,,,,,,,
,,,,,966677,f,y,r,n,11,0,2025-04-05_10h37.26.105,VisualSearchFaces,2024.2.4,Win32,59.88023952,,,,,,,,1940.7536,1940.8689,1940.8689,1942.8689,block4,f,1,1,24,64,20,1,0,centre,neutral,no_target,0.5667,,,,,,,,,,,,,,,,,
,,,,,966677,f,y,r,n,11,0,2025-04-05_10h37.26.105,VisualSearchFaces,2024.2.4,Win32,59.88023952,,,,,,,,1943.8702,1943.9853,1943.9854,1945.9853,block4,j,1,1,25,65,16,1,1,top_left,threatening,neutral,0.5507,,,,,,,,,,,,,,,,,
,,,,,966677,f,y,r,n,11,0,2025-04-05_10h37.26.105,VisualSearchFaces,2024.2.4,Win32,59.88023952,,,,,,,,1946.9864,1947.1015,1947.1015,1949.102,block4,f,1,1,26,66,21,1,0,top_left,neutral,no_target,0.5678,,,,,,,,,,,,,,,,,
,,,,,966677,f,y,r,n,11,0,2025-04-05_10h37.26.105,VisualSearchFaces,2024.2.4,Win32,59.88023952,,,,,,,,1950.1034,1950.2186,1950.2187,1952.2183,block4,j,1,1,27,67,11,1,1,top_left,friendly,neutral,0.6678,,,,,,,,,,,,,,,,,
,,,,,966677,f,y,r,n,11,0,2025-04-05_10h37.26.105,VisualSearchFaces,2024.2.4,Win32,59.88023952,,,,,,,,1953.2198,1953.3186,1953.3187,1955.3183,block4,j,1,1,28,68,10,1,1,centre,friendly,neutral,0.9669,,,,,,,,,,,,,,,,,
,,,,,966677,f,y,r,n,11,0,2025-04-05_10h37.26.105,VisualSearchFaces,2024.2.4,Win32,59.88023952,,,,,,,,1956.3197,1956.4187,1956.4188,1958.4187,block4,f,1,1,29,69,22,1,0,top_right,neutral,no_target,0.5176,,,,,,,,,,,,,,,,,
,,,,,966677,f,y,r,n,11,0,2025-04-05_10h37.26.105,VisualSearchFaces,2024.2.4,Win32,59.88023952,,,,,,,,1959.4199,1959.5353,1959.5353,1961.5347,block4,f,1,1,30,70,24,1,0,bottom_right,neutral,no_target,0.4836,,,,,,,,,,,,,,,,,
,,,,,966677,f,y,r,n,11,0,2025-04-05_10h37.26.105,VisualSearchFaces,2024.2.4,Win32,59.88023952,,,,,,,,1962.5365,1962.6354,1962.6354,1964.6352,block4,j,1,1,31,71,4,1,1,bottom_right,neutral,friendly,0.4043,,,,,,,,,,,,,,,,,
,,,,,966677,f,y,r,n,11,0,2025-04-05_10h37.26.105,VisualSearchFaces,2024.2.4,Win32,59.88023952,,,,,,,,1965.6364,1965.7518,1965.7518,1967.7517,block4,f,1,1,32,72,29,1,0,bottom_right,neutral,no_target,0.4513,,,,,,,,,,,,,,,,,
,,,,,966677,f,y,r,n,11,0,2025-04-05_10h37.26.105,VisualSearchFaces,2024.2.4,Win32,59.88023952,,,,,,,,1968.748,1968.8518,1968.8519,1970.8514,block4,f,1,1,33,73,35,1,0,centre,threatening,no_target,0.7003,,,,,,,,,,,,,,,,,
,,,,,966677,f,y,r,n,11,0,2025-04-05_10h37.26.105,VisualSearchFaces,2024.2.4,Win32,59.88023952,,,,,,,,1971.8528,1971.9679,1971.9679,1973.9679,block4,j,1,1,34,74,6,1,1,top_left,neutral,threatening,0.5176,,,,,,,,,,,,,,,,,
,,,,,966677,f,y,r,n,11,0,2025-04-05_10h37.26.105,VisualSearchFaces,2024.2.4,Win32,59.88023952,,,,,,,,1974.9823,1975.0851,1975.0851,1977.0851,block4,j,1,1,35,75,17,1,1,top_right,threatening,neutral,0.6502,,,,,,,,,,,,,,,,,
,,,,,966677,f,y,r,n,11,0,2025-04-05_10h37.26.105,VisualSearchFaces,2024.2.4,Win32,59.88023952,,,,,,,,1978.0862,1978.2016,1978.2016,1980.2018,block4,f,1,1,36,76,30,1,0,centre,friendly,no_target,0.8992,,,,,,,,,,,,,,,,,
,,,,,966677,f,y,r,n,11,0,2025-04-05_10h37.26.105,VisualSearchFaces,2024.2.4,Win32,59.88023952,,,,,,,,1981.2032,1981.3184,1981.3185,1983.3179,block4,j,1,1,37,77,19,1,1,bottom_right,threatening,neutral,0.4764,,,,,,,,,,,,,,,,,
,,,,,966677,f,y,r,n,11,0,2025-04-05_10h37.26.105,VisualSearchFaces,2024.2.4,Win32,59.88023952,,,,,,,,1984.3144,1984.4183,1984.4184,1986.4181,block4,j,1,1,38,78,2,1,1,top_right,neutral,friendly,0.4832,,,,,,,,,,,,,,,,,
,,,,,966677,f,y,r,n,11,0,2025-04-05_10h37.26.105,VisualSearchFaces,2024.2.4,Win32,59.88023952,,,,,,,,1987.4193,1987.5346,1987.5347,1989.5342,block4,j,1,1,39,79,12,1,1,top_right,friendly,neutral,0.4844,,,,,,,,,,,,,,,,,
,,,,,966677,f,y,r,n,11,0,2025-04-05_10h37.26.105,VisualSearchFaces,2024.2.4,Win32,59.88023952,,,,,,,,,,,,,,,,,,,,,,,,,,1989.5364,2009.1176,space,19.5532,,2009.1189,2053.0322,"Happy, angry, and indifferent simple faces made up of various lines.",1,[2053.032],[2053.032],,,,,
,,,,,966677,f,y,r,n,11,0,2025-04-05_10h37.26.105,VisualSearchFaces,2024.2.4,Win32,59.88023952,,,,,,,,,,,,,,,,,,,,,,,,,,,,,,,,,,,,,2053.0326,2064.4504,space,11.3962,
